practice,experiment,aim,content1,color1,cr1,colorChinese1,content,color,ca,randomizer.thisRepN,randomizer.thisTrialN,randomizer.thisN,randomizer.thisIndex,practice_loop.thisRepN,practice_loop.thisTrialN,practice_loop.thisN,practice_loop.thisIndex,experiment_loop.thisRepN,experiment_loop.thisTrialN,experiment_loop.thisN,experiment_loop.thisIndex,thisRow.t,notes,warning.started,text_10.started,key_resp_9.started,warning.stopped,key_resp_9.keys,key_resp_9.rt,key_resp_9.duration,opening.started,text_2.started,key_resp_3.started,opening.stopped,key_resp_3.keys,key_resp_3.rt,key_resp_3.duration,instruction.started,text_6.started,key_resp_4.started,instruction.stopped,key_resp_4.keys,key_resp_4.rt,key_resp_4.duration,fixation.started,text_7.started,text_7.stopped,fixation.stopped,practice_trials.started,text_3.started,text_9.started,key_resp_5.started,practice_trials.stopped,key_resp_5.keys,key_resp_5.corr,key_resp_5.rt,key_resp_5.duration,feedback.started,text_4.started,key_resp_7.started,feedback.stopped,key_resp_7.keys,text_4.stopped,key_resp_7.stopped,key_resp_7.rt,key_resp_7.duration,begining_info.started,text_8.started,key_resp_6.started,begining_info.stopped,key_resp_6.keys,key_resp_6.rt,key_resp_6.duration,experiment_trials.started,text.started,key_resp_2.started,experiment_trials.stopped,key_resp_2.keys,key_resp_2.corr,key_resp_2.rt,key_resp_2.duration,text.stopped,key_resp_2.stopped,Finish_word.started,text_5.started,key_resp_8.started,Finish_word.stopped,key_resp_8.keys,key_resp_8.rt,key_resp_8.duration,participant,session,date,expName,psychopyVersion,frameRate,expStart,
,,,,,,,,,,,,,,,,,,,,,,,,0.02708329999950365,0.0375555999999051,0.0375555999999051,15.367289300000266,j,15.253430099999605,None,,,,,,,,,,,,,,,,,,,,,,,,,,,,,,,,,,,,,,,,,,,,,,,,,,,,,,,,,,,,,1,001,2024-07-27_19h50.03.246,stroop,2024.1.5,None,2024-07-27 19h50.33.749824 +0800,
,,,,,,,,,,,,,,,,,,,,,,,,,,,,,,,15.367320399998789,15.373671299999842,15.373671299999842,31.84677009999905,space,16.47163349999937,None,,,,,,,,,,,,,,,,,,,,,,,,,,,,,,,,,,,,,,,,,,,,,,,,,,,,,,1,001,2024-07-27_19h50.03.246,stroop,2024.1.5,None,2024-07-27 19h50.33.749824 +0800,
meaning.xlsx,meaning_exp.xlsx,含义,男护士,blue,F,描述男性,,,,0,0,0,1,0,0,0,4,,,,,42.048246799999106,,,,,,,,,,,,,,,,31.864234299999225,31.910369999999602,31.910369999999602,42.03535769999871,space,10.11642539999957,None,42.04292480000004,42.048246799999106,42.35039890000007,42.33468919999905,42.33470370000032,42.35039890000007,42.35039890000007,42.35039890000007,43.0014515999992,f,0,0.6450043999993795,None,43.001775999999154,43.01862830000027,43.01862830000027,45.012185199999294,None,,,,,,,,,,,,,,,,,,,,,,,,,,,,,1,001,2024-07-27_19h50.03.246,stroop,2024.1.5,None,2024-07-27 19h50.33.749824 +0800,
meaning.xlsx,meaning_exp.xlsx,含义,女护士,pink,J,描述女性,,,,0,0,0,1,0,1,1,5,,,,,45.0235047999995,,,,,,,,,,,,,,,,,,,,,,,45.01265179999973,45.0235047999995,,45.31225909999921,45.312289800000144,45.323089499999696,45.323089499999696,45.323089499999696,45.91256809999868,j,0,0.5834352000001672,None,45.912815199999386,45.9228852999986,45.9228852999986,47.91240349999862,None,47.922977099999116,47.922977099999116,,,,,,,,,,,,,,,,,,,,,,,,,,,1,001,2024-07-27_19h50.03.246,stroop,2024.1.5,None,2024-07-27 19h50.33.749824 +0800,
meaning.xlsx,meaning_exp.xlsx,含义,女,purple,J,描述女性,,,,0,0,0,1,0,2,2,11,,,,,47.922977099999116,,,,,,,,,,,,,,,,,,,,,,,47.91305509999984,47.922977099999116,48.22311059999993,48.21257159999914,48.21258680000028,48.22311059999993,48.22311059999993,48.22311059999993,48.868247299998984,j,0,0.6409659999990254,None,48.86851029999889,48.87867069999993,48.87867069999993,50.867842499999824,None,50.8783102999987,50.8783102999987,,,,,,,,,,,,,,,,,,,,,,,,,,,1,001,2024-07-27_19h50.03.246,stroop,2024.1.5,None,2024-07-27 19h50.33.749824 +0800,
meaning.xlsx,meaning_exp.xlsx,含义,警察,pink,X,X,,,,0,0,0,1,0,3,3,16,,,,,50.8783102999987,,,,,,,,,,,,,,,,,,,,,,,50.86809879999964,50.8783102999987,51.180363299999954,51.1680669999987,51.16808149999997,51.180363299999954,51.180363299999954,51.180363299999954,51.99054259999866,f,0,0.8087028000009013,None,51.990822599998864,52.01794439999867,52.01794439999867,54.000791200000094,None,,,,,,,,,,,,,,,,,,,,,,,,,,,,,1,001,2024-07-27_19h50.03.246,stroop,2024.1.5,None,2024-07-27 19h50.33.749824 +0800,
meaning.xlsx,meaning_exp.xlsx,含义,女护士,blue,J,描述女性,,,,0,0,0,1,0,4,4,7,,,,,54.01148759999887,,,,,,,,,,,,,,,,,,,,,,,54.001089699999284,54.01148759999887,,54.30129359999955,54.30132210000011,54.311564499999804,54.311564499999804,54.311564499999804,54.93520979999994,j,0,0.6192941999997856,None,54.935549799998626,54.94574759999887,54.94574759999887,56.93433449999975,None,56.9448511999999,56.9448511999999,,,,,,,,,,,,,,,,,,,,,,,,,,,1,001,2024-07-27_19h50.03.246,stroop,2024.1.5,None,2024-07-27 19h50.33.749824 +0800,
meaning.xlsx,meaning_exp.xlsx,含义,女护士,black,J,描述女性,,,,0,0,0,1,0,5,5,13,,,,,56.9448511999999,,,,,,,,,,,,,,,,,,,,,,,56.934683999999834,56.9448511999999,57.24485209999875,57.23468729999877,57.23470289999932,57.24485209999875,57.24485209999875,57.24485209999875,57.86821869999949,j,0,0.6123022000010678,None,57.868443899998965,57.87818960000004,57.87818960000004,59.86744639999961,None,59.87802449999981,59.87802449999981,,,,,,,,,,,,,,,,,,,,,,,,,,,1,001,2024-07-27_19h50.03.246,stroop,2024.1.5,None,2024-07-27 19h50.33.749824 +0800,
meaning.xlsx,meaning_exp.xlsx,含义,女护士,black,J,描述女性,,,,0,0,0,1,0,6,6,13,,,,,59.87802449999981,,,,,,,,,,,,,,,,,,,,,,,59.867786999999225,59.87802449999981,60.178026199999294,60.167503900000156,60.16751589999876,60.178026199999294,60.178026199999294,60.178026199999294,60.83479019999868,j,0,0.6552288999992015,None,60.83504519999951,60.84493659999862,60.84493659999862,62.83442769999965,None,62.84486689999903,62.84486689999903,,,,,,,,,,,,,,,,,,,,,,,,,,,1,001,2024-07-27_19h50.03.246,stroop,2024.1.5,None,2024-07-27 19h50.33.749824 +0800,
meaning.xlsx,meaning_exp.xlsx,含义,女护士,blue,J,描述女性,,,,0,0,0,1,0,7,7,7,,,,,62.84486689999903,,,,,,,,,,,,,,,,,,,,,,,62.8350432999996,62.84486689999903,63.14472509999905,63.1343739999993,63.13438949999909,63.14472509999905,63.14472509999905,63.14472509999905,63.74579269999958,j,0,0.5955656999994972,None,63.746151699999245,63.75619579999875,63.75619579999875,65.74523919999956,None,65.75570519999928,65.75570519999928,,,,,,,,,,,,,,,,,,,,,,,,,,,1,001,2024-07-27_19h50.03.246,stroop,2024.1.5,None,2024-07-27 19h50.33.749824 +0800,
meaning.xlsx,meaning_exp.xlsx,含义,男护士,pink,F,描述男性,,,,0,0,0,1,0,8,8,6,,,,,65.75570519999928,,,,,,,,,,,,,,,,,,,,,,,65.74556759999905,65.75570519999928,66.05573419999928,66.04515910000009,66.04517859999942,66.05573419999928,66.05573419999928,66.05573419999928,66.60145600000033,f,0,0.5446057000008295,None,66.60178209999867,66.61376930000006,66.61376930000006,68.60074340000028,None,68.61122780000005,68.61122780000005,,,,,,,,,,,,,,,,,,,,,,,,,,,1,001,2024-07-27_19h50.03.246,stroop,2024.1.5,None,2024-07-27 19h50.33.749824 +0800,
meaning.xlsx,meaning_exp.xlsx,含义,护士,blue,X,X,,,,0,0,0,1,0,9,9,19,,,,,68.61122780000005,,,,,,,,,,,,,,,,,,,,,,,68.60105060000024,68.61122780000005,68.91146089999893,68.90120860000025,68.9012348999986,68.91146089999893,68.91146089999893,68.91146089999893,69.53431470000032,j,0,0.6179375000010623,None,69.53461839999909,69.54487150000023,69.54487150000023,71.53443309999966,None,71.54456369999934,71.54456369999934,,,,,,,,,,,,,,,,,,,,,,,,,,,1,001,2024-07-27_19h50.03.246,stroop,2024.1.5,None,2024-07-27 19h50.33.749824 +0800,
meaning.xlsx,meaning_exp.xlsx,含义,男护士,black,F,描述男性,,,,0,0,0,1,0,10,10,12,,,,,71.54456369999934,,,,,,,,,,,,,,,,,,,,,,,71.53486319999865,71.54456369999934,71.84517549999873,71.83401189999859,71.83403309999994,71.84517549999873,71.84517549999873,71.84517549999873,72.52380789999916,f,0,0.6747015000000829,None,72.52409489999991,72.5401456999989,72.5401456999989,74.52313270000013,None,74.53348779999942,74.53348779999942,,,,,,,,,,,,,,,,,,,,,,,,,,,1,001,2024-07-27_19h50.03.246,stroop,2024.1.5,None,2024-07-27 19h50.33.749824 +0800,
meaning.xlsx,meaning_exp.xlsx,含义,女护士,purple,J,描述女性,,,,0,0,0,1,0,11,11,15,,,,,74.53348779999942,,,,,,,,,,,,,,,,,,,,,,,74.52344369999992,74.53348779999942,74.83364909999909,74.82298439999977,74.82300149999901,74.83364909999909,74.83364909999909,74.83364909999909,75.46795039999961,j,0,0.628617899999881,None,75.4682243999996,75.47839009999916,75.47839009999916,77.46740429999954,None,77.4780056999989,77.4780056999989,,,,,,,,,,,,,,,,,,,,,,,,,,,1,001,2024-07-27_19h50.03.246,stroop,2024.1.5,None,2024-07-27 19h50.33.749824 +0800,
meaning.xlsx,meaning_exp.xlsx,含义,护士,pink,X,X,,,,0,0,0,1,0,12,12,17,,,,,77.4780056999989,,,,,,,,,,,,,,,,,,,,,,,77.4678645999993,77.4780056999989,77.77799499999855,77.76728179999918,77.76729689999956,77.77799499999855,77.77799499999855,77.77799499999855,78.4454783000001,j,0,0.6604815999999119,None,78.44573649999984,78.46006419999867,78.46006419999867,80.4450627999995,None,80.45578670000032,80.45578670000032,,,,,,,,,,,,,,,,,,,,,,,,,,,1,001,2024-07-27_19h50.03.246,stroop,2024.1.5,None,2024-07-27 19h50.33.749824 +0800,
meaning.xlsx,meaning_exp.xlsx,含义,男,blue,F,描述男性,,,,0,0,0,1,0,13,13,2,,,,,80.45578670000032,,,,,,,,,,,,,,,,,,,,,,,80.44534059999933,80.45578670000032,80.75586929999918,80.74492289999944,80.74493699999948,80.75586929999918,80.75586929999918,80.75586929999918,81.47371839999869,j,0,0.7145638000001782,None,81.47402179999881,81.48447229999874,81.48447229999874,83.4778312999988,None,,,,,,,,,,,,,,,,,,,,,,,,,,,,,1,001,2024-07-27_19h50.03.246,stroop,2024.1.5,None,2024-07-27 19h50.33.749824 +0800,
meaning.xlsx,meaning_exp.xlsx,含义,男护士,purple,F,描述男性,,,,0,0,0,1,0,14,14,14,,,,,83.48871249999866,,,,,,,,,,,,,,,,,,,,,,,83.4781966999999,83.48871249999866,,83.77795139999944,83.7779660999986,83.78885099999934,83.78885099999934,83.78885099999934,84.27920199999971,f,0,0.4876550999997562,None,84.27951099999882,84.28881249999904,84.28881249999904,86.27846649999992,None,86.28904759999932,86.28904759999932,,,,,,,,,,,,,,,,,,,,,,,,,,,1,001,2024-07-27_19h50.03.246,stroop,2024.1.5,None,2024-07-27 19h50.33.749824 +0800,
meaning.xlsx,meaning_exp.xlsx,含义,警察,blue,X,X,,,,0,0,0,1,0,15,15,18,,,,,86.28904759999932,,,,,,,,,,,,,,,,,,,,,,,86.27881109999907,86.28904759999932,86.58893379999972,86.5783565999991,86.57837899999868,86.58893379999972,86.58893379999972,86.58893379999972,87.38982430000033,f,0,0.7963242000005266,None,87.39013259999956,87.40227849999974,87.40227849999974,89.38923350000005,None,89.39977799999906,89.39977799999906,,,,,,,,,,,,,,,,,,,,,,,,,,,1,001,2024-07-27_19h50.03.246,stroop,2024.1.5,None,2024-07-27 19h50.33.749824 +0800,
meaning.xlsx,meaning_exp.xlsx,含义,警察,blue,X,X,,,,0,0,0,1,0,16,16,18,,,,,89.39977799999906,,,,,,,,,,,,,,,,,,,,,,,89.3895878000003,89.39977799999906,89.69980099999884,89.68933829999878,89.6893557000003,89.69980099999884,89.69980099999884,89.69980099999884,90.24524969999948,f,0,0.5356879999999364,None,90.24554679999892,90.2554014999987,90.2554014999987,92.24539509999886,None,92.25528440000016,92.25528440000016,,,,,,,,,,,,,,,,,,,,,,,,,,,1,001,2024-07-27_19h50.03.246,stroop,2024.1.5,None,2024-07-27 19h50.33.749824 +0800,
meaning.xlsx,meaning_exp.xlsx,含义,男,black,F,描述男性,,,,0,0,0,1,0,17,17,8,,,,,92.25528440000016,,,,,,,,,,,,,,,,,,,,,,,92.2456633999991,92.25528440000016,92.5554831999998,92.54475499999899,92.54477119999865,92.5554831999998,92.5554831999998,92.5554831999998,93.16743529999985,f,0,0.6009813000000577,None,93.16770670000005,93.17854189999889,93.17854189999889,95.16741739999998,None,95.17777620000015,95.17777620000015,,,,,,,,,,,,,,,,,,,,,,,,,,,1,001,2024-07-27_19h50.03.246,stroop,2024.1.5,None,2024-07-27 19h50.33.749824 +0800,
meaning.xlsx,meaning_exp.xlsx,含义,男,black,F,描述男性,,,,0,0,0,1,0,18,18,8,,,,,95.17777620000015,,,,,,,,,,,,,,,,,,,,,,,95.16770539999925,95.17777620000015,95.47750219999944,95.46741409999959,95.46742970000014,95.47750219999944,95.47750219999944,95.47750219999944,96.4346786999995,f,0,0.9488393000010547,None,96.43501019999894,96.44452219999948,96.44452219999948,98.43369549999989,None,98.44403079999938,98.44403079999938,,,,,,,,,,,,,,,,,,,,,,,,,,,1,001,2024-07-27_19h50.03.246,stroop,2024.1.5,None,2024-07-27 19h50.33.749824 +0800,
meaning.xlsx,meaning_exp.xlsx,含义,男护士,black,F,描述男性,,,,0,0,0,1,0,19,19,12,,,,,98.44403079999938,,,,,,,,,,,,,,,,,,,,,,,98.43396550000034,98.44403079999938,98.74422229999982,98.73374059999878,98.73376110000027,98.74422229999982,98.74422229999982,98.74422229999982,99.41195289999996,f,0,0.6654865000000427,None,99.41221079999923,99.42199540000001,99.42199540000001,101.41132440000001,None,101.42178539999986,101.42178539999986,,,,,,,,,,,,,,,,,,,,,,,,,,,1,001,2024-07-27_19h50.03.246,stroop,2024.1.5,None,2024-07-27 19h50.33.749824 +0800,
meaning.xlsx,meaning_exp.xlsx,含义,男护士,blue,F,描述男性,,,,0,0,0,1,1,0,20,4,,,,,101.42178539999986,,,,,,,,,,,,,,,,,,,,,,,101.41159650000009,101.42178539999986,101.72193139999945,101.71168000000034,101.7116976999987,101.72193139999945,101.72193139999945,101.72193139999945,102.15597259999959,f,0,0.4232996999999159,None,102.15622529999928,102.16621479999958,102.16621479999958,104.15584919999856,None,104.16633410000031,104.16633410000031,,,,,,,,,,,,,,,,,,,,,,,,,,,1,001,2024-07-27_19h50.03.246,stroop,2024.1.5,None,2024-07-27 19h50.33.749824 +0800,
meaning.xlsx,meaning_exp.xlsx,含义,女,black,J,描述女性,,,,0,0,0,1,1,1,21,9,,,,,104.16633410000031,,,,,,,,,,,,,,,,,,,,,,,104.15627889999996,104.16633410000031,104.46640639999896,104.45634950000021,104.4563675999998,104.46640639999896,104.46640639999896,104.46640639999896,105.20033169999988,j,0,0.7281218000007357,None,105.20059079999919,105.21082409999872,105.21082409999872,107.1999880000003,None,107.21054149999873,107.21054149999873,,,,,,,,,,,,,,,,,,,,,,,,,,,1,001,2024-07-27_19h50.03.246,stroop,2024.1.5,None,2024-07-27 19h50.33.749824 +0800,
meaning.xlsx,meaning_exp.xlsx,含义,警察,pink,X,X,,,,0,0,0,1,1,2,22,16,,,,,107.21054149999873,,,,,,,,,,,,,,,,,,,,,,,107.20033989999865,107.21054149999873,107.51051489999918,107.50024589999884,107.50026439999965,107.51051489999918,107.51051489999918,107.51051489999918,108.18874139999934,f,0,0.6760351999982959,None,108.18900089999988,108.20054179999897,108.20054179999897,110.18879559999914,None,110.19955019999907,110.19955019999907,,,,,,,,,,,,,,,,,,,,,,,,,,,1,001,2024-07-27_19h50.03.246,stroop,2024.1.5,None,2024-07-27 19h50.33.749824 +0800,
meaning.xlsx,meaning_exp.xlsx,含义,女,pink,J,描述女性,,,,0,0,0,1,1,3,23,3,,,,,110.19955019999907,,,,,,,,,,,,,,,,,,,,,,,110.18903150000006,110.19955019999907,110.49960490000012,110.48948439999913,110.48950749999858,110.49960490000012,110.49960490000012,110.49960490000012,111.09998239999913,j,0,0.5903766999999789,None,111.10027739999896,111.1124361000002,111.1124361000002,113.10028579999926,None,113.11070870000003,113.11070870000003,,,,,,,,,,,,,,,,,,,,,,,,,,,1,001,2024-07-27_19h50.03.246,stroop,2024.1.5,None,2024-07-27 19h50.33.749824 +0800,
meaning.xlsx,meaning_exp.xlsx,含义,男,purple,F,描述男性,,,,0,0,0,1,1,4,24,10,,,,,113.11070870000003,,,,,,,,,,,,,,,,,,,,,,,113.10054929999933,113.11070870000003,113.41036069999973,113.39997099999891,113.39998480000031,113.41036069999973,113.41036069999973,113.41036069999973,113.96670079999967,f,0,0.5452347999998892,None,113.96691309999915,113.97708939999939,113.97708939999939,115.9664673999996,None,115.97701579999921,115.97701579999921,,,,,,,,,,,,,,,,,,,,,,,,,,,1,001,2024-07-27_19h50.03.246,stroop,2024.1.5,None,2024-07-27 19h50.33.749824 +0800,
meaning.xlsx,meaning_exp.xlsx,含义,男,pink,F,描述男性,,,,0,0,0,1,1,5,25,0,,,,,115.97701579999921,,,,,,,,,,,,,,,,,,,,,,,115.96677409999938,115.97701579999921,116.27709770000001,116.26652719999947,116.26654260000032,116.27709770000001,116.27709770000001,116.27709770000001,116.7216585999995,f,0,0.4349691999996139,None,116.72190930000033,116.73230460000013,116.73230460000013,118.72222200000033,None,118.73257829999966,118.73257829999966,,,,,,,,,,,,,,,,,,,,,,,,,,,1,001,2024-07-27_19h50.03.246,stroop,2024.1.5,None,2024-07-27 19h50.33.749824 +0800,
meaning.xlsx,meaning_exp.xlsx,含义,男护士,pink,F,描述男性,,,,0,0,0,1,1,6,26,6,,,,,118.73257829999966,,,,,,,,,,,,,,,,,,,,,,,118.72261479999906,118.73257829999966,119.03265009999996,119.02210059999925,119.02211460000035,119.03265009999996,119.03265009999996,119.03265009999996,119.55578859999878,f,0,0.516545499998756,None,119.55603919999885,119.56587509999918,119.56587509999918,121.56000379999932,None,,,,,,,,,,,,,,,,,,,,,,,,,,,,,1,001,2024-07-27_19h50.03.246,stroop,2024.1.5,None,2024-07-27 19h50.33.749824 +0800,
meaning.xlsx,meaning_exp.xlsx,含义,女,blue,J,描述女性,,,,0,0,0,1,1,7,27,1,,,,,121.56593590000011,,,,,,,,,,,,,,,,,,,,,,,121.56028100000003,121.56593590000011,121.86574870000004,121.85540570000012,121.8554210000002,121.86574870000004,121.86574870000004,121.86574870000004,122.3893494999993,j,0,0.5136659999989206,None,122.38962829999946,122.4006733999995,122.4006733999995,124.38891929999954,None,124.3993133999993,124.3993133999993,,,,,,,,,,,,,,,,,,,,,,,,,,,1,001,2024-07-27_19h50.03.246,stroop,2024.1.5,None,2024-07-27 19h50.33.749824 +0800,
meaning.xlsx,meaning_exp.xlsx,含义,女,blue,J,描述女性,,,,0,0,0,1,1,8,28,1,,,,,124.3993133999993,,,,,,,,,,,,,,,,,,,,,,,124.38932829999976,124.3993133999993,124.69936979999875,124.68825579999975,124.68826929999886,124.69936979999875,124.69936979999875,124.69936979999875,125.1668110999999,j,0,0.4567647999992914,None,125.16707209999913,125.1769862000001,125.1769862000001,127.1667209999996,None,127.1768080999991,127.1768080999991,,,,,,,,,,,,,,,,,,,,,,,,,,,1,001,2024-07-27_19h50.03.246,stroop,2024.1.5,None,2024-07-27 19h50.33.749824 +0800,
meaning.xlsx,meaning_exp.xlsx,含义,男,purple,F,描述男性,,,,0,0,0,1,1,9,29,10,,,,,127.1768080999991,,,,,,,,,,,,,,,,,,,,,,,127.16705550000006,127.1768080999991,127.47694609999962,127.46649359999901,127.46651079999901,127.47694609999962,127.47694609999962,127.47694609999962,127.96648769999956,f,0,0.478480200001286,None,127.96680449999985,127.97686989999966,127.97686989999966,129.9663657000001,None,129.97679880000032,129.97679880000032,,,,,,,,,,,,,,,,,,,,,,,,,,,1,001,2024-07-27_19h50.03.246,stroop,2024.1.5,None,2024-07-27 19h50.33.749824 +0800,
meaning.xlsx,meaning_exp.xlsx,含义,女护士,purple,J,描述女性,,,,0,0,0,1,1,10,30,15,,,,,129.97679880000032,,,,,,,,,,,,,,,,,,,,,,,129.9666378999991,129.97679880000032,130.27673519999917,130.26647539999976,130.26648989999921,130.27673519999917,130.27673519999917,130.27673519999917,130.78875309999967,f,0,0.5102291999992303,None,130.78902559999915,130.80006179999873,130.80006179999873,132.29987319999964,j,,,1.4920821000014257,None,,,,,,,,,,,,,,,,,,,,,,,,,1,001,2024-07-27_19h50.03.246,stroop,2024.1.5,None,2024-07-27 19h50.33.749824 +0800,
meaning.xlsx,meaning_exp.xlsx,含义,男,blue,F,描述男性,,,,0,0,0,1,1,11,31,2,,,,,132.31016569999883,,,,,,,,,,,,,,,,,,,,,,,132.3003004000002,132.31016569999883,132.61026949999905,132.59964579999905,132.59966059999897,132.61026949999905,132.61026949999905,132.61026949999905,133.22221480000007,f,0,0.6051152999989426,None,133.22248219999892,133.2328000999987,133.2328000999987,135.2219176999988,None,135.23250949999965,135.23250949999965,,,,,,,,,,,,,,,,,,,,,,,,,,,1,001,2024-07-27_19h50.03.246,stroop,2024.1.5,None,2024-07-27 19h50.33.749824 +0800,
meaning.xlsx,meaning_exp.xlsx,含义,护士,pink,X,X,,,,0,0,0,1,1,12,32,17,,,,,135.23250949999965,,,,,,,,,,,,,,,,,,,,,,,135.22218350000003,135.23250949999965,135.53240099999857,135.52183299999888,135.52184820000002,135.53240099999857,135.53240099999857,135.53240099999857,136.2665481999993,j,0,0.7238056000005599,None,136.26679460000014,136.2789503999993,136.2789503999993,138.26625929999864,None,138.27650879999965,138.27650879999965,,,,,,,,,,,,,,,,,,,,,,,,,,,1,001,2024-07-27_19h50.03.246,stroop,2024.1.5,None,2024-07-27 19h50.33.749824 +0800,
meaning.xlsx,meaning_exp.xlsx,含义,男护士,purple,F,描述男性,,,,0,0,0,1,1,13,33,14,,,,,138.27650879999965,,,,,,,,,,,,,,,,,,,,,,,138.2665681999988,138.27650879999965,138.5768025999987,138.56645359999857,138.56648250000035,138.5768025999987,138.5768025999987,138.5768025999987,139.03307459999996,j,0,0.4537951999991492,None,139.03335679999873,139.04356889999872,139.04356889999872,141.0329124,None,141.04331449999881,141.04331449999881,,,,,,,,,,,,,,,,,,,,,,,,,,,1,001,2024-07-27_19h50.03.246,stroop,2024.1.5,None,2024-07-27 19h50.33.749824 +0800,
meaning.xlsx,meaning_exp.xlsx,含义,女,black,J,描述女性,,,,0,0,0,1,1,14,34,9,,,,,141.04331449999881,,,,,,,,,,,,,,,,,,,,,,,141.03323479999926,141.04331449999881,141.34333289999995,141.3326777000002,141.33269429999928,141.34333289999995,141.34333289999995,141.34333289999995,142.21080900000015,f,0,0.8640433000000485,None,142.21108249999997,142.22374239999954,142.22374239999954,144.21029249999992,None,144.22115339999982,144.22115339999982,,,,,,,,,,,,,,,,,,,,,,,,,,,1,001,2024-07-27_19h50.03.246,stroop,2024.1.5,None,2024-07-27 19h50.33.749824 +0800,
meaning.xlsx,meaning_exp.xlsx,含义,男,pink,F,描述男性,,,,0,0,0,1,1,15,35,0,,,,,144.22115339999982,,,,,,,,,,,,,,,,,,,,,,,144.2105277999999,144.22115339999982,144.52131120000013,144.5104494999996,144.51046309999947,144.52131120000013,144.52131120000013,144.52131120000013,145.08850939999866,j,0,0.558089199999813,None,145.08872220000012,145.09921159999976,145.09921159999976,147.08824189999905,None,147.09888929999943,147.09888929999943,,,,,,,,,,,,,,,,,,,,,,,,,,,1,001,2024-07-27_19h50.03.246,stroop,2024.1.5,None,2024-07-27 19h50.33.749824 +0800,
meaning.xlsx,meaning_exp.xlsx,含义,女,pink,J,描述女性,,,,0,0,0,1,1,16,36,3,,,,,147.09888929999943,,,,,,,,,,,,,,,,,,,,,,,147.08852189999925,147.09888929999943,147.39881429999878,147.38858400000026,147.38859779999984,147.39881429999878,147.39881429999878,147.39881429999878,149.03321359999973,j,0,1.6318250999993325,None,149.0334597000001,149.0431609999996,149.0431609999996,151.0329002999988,None,151.04339619999882,151.04339619999882,,,,,,,,,,,,,,,,,,,,,,,,,,,1,001,2024-07-27_19h50.03.246,stroop,2024.1.5,None,2024-07-27 19h50.33.749824 +0800,
meaning.xlsx,meaning_exp.xlsx,含义,护士,blue,X,X,,,,0,0,0,1,1,17,37,19,,,,,151.04339619999882,,,,,,,,,,,,,,,,,,,,,,,151.0332467999997,151.04339619999882,151.34323289999884,151.33231290000003,151.3323292999994,151.34323289999884,151.34323289999884,151.34323289999884,152.44422289999966,j,0,1.09929529999863,None,152.4444881999989,152.4566423999986,152.4566423999986,154.44367280000006,None,154.45408729999872,154.45408729999872,,,,,,,,,,,,,,,,,,,,,,,,,,,1,001,2024-07-27_19h50.03.246,stroop,2024.1.5,None,2024-07-27 19h50.33.749824 +0800,
meaning.xlsx,meaning_exp.xlsx,含义,女护士,pink,J,描述女性,,,,0,0,0,1,1,18,38,5,,,,,154.45408729999872,,,,,,,,,,,,,,,,,,,,,,,154.44400010000027,154.45408729999872,154.75408459999926,154.74378269999943,154.74379789999875,154.75408459999926,154.75408459999926,154.75408459999926,155.58854880000035,f,0,0.8290159000007407,None,155.58880249999856,155.60076750000007,155.60076750000007,157.58800979999978,None,157.5985485000001,157.5985485000001,,,,,,,,,,,,,,,,,,,,,,,,,,,1,001,2024-07-27_19h50.03.246,stroop,2024.1.5,None,2024-07-27 19h50.33.749824 +0800,
meaning.xlsx,meaning_exp.xlsx,含义,女,purple,J,描述女性,,,,0,0,0,1,1,19,39,11,,,,,157.5985485000001,,,,,,,,,,,,,,,,,,,,,,,157.58831089999876,157.5985485000001,157.8984486999998,157.8882414999989,157.88825429999997,157.8984486999998,157.8984486999998,157.8984486999998,158.34400920000007,j,0,0.4444163000007393,None,158.34428689999913,158.35397379999995,158.35397379999995,160.3442973000001,None,160.374071799999,160.374071799999,,,,,,,,,,,,,,,,,,,,,,,,,,,1,001,2024-07-27_19h50.03.246,stroop,2024.1.5,None,2024-07-27 19h50.33.749824 +0800,
meaning.xlsx,meaning_exp.xlsx,含义,,,,,领导,purple,x,0,0,0,1,,,,,0,0,0,63,161.68360889999894,,,,,,,,,,,,,,,,,,,,,,,161.67892599999868,161.68360889999894,,161.97671309999896,,,,,,,,,,,,,,,,,,,160.34451099999933,160.374071799999,160.374071799999,161.6659026999987,space,1.2886713999996573,None,161.97672880000027,161.9900773999998,161.9900773999998,162.61031509999884,f,0,0.6102645999999368,None,,,,,,,,,,1,001,2024-07-27_19h50.03.246,stroop,2024.1.5,None,2024-07-27 19h50.33.749824 +0800,
meaning.xlsx,meaning_exp.xlsx,含义,,,,,老师,black,x,0,0,0,1,,,,,0,1,1,5,162.62051239999892,,,,,,,,,,,,,,,,,,,,,,,162.61081869999907,162.62051239999892,162.92256239999915,162.9098553999993,,,,,,,,,,,,,,,,,,,,,,,,,,162.90986820000035,162.92256239999915,162.92256239999915,163.46621859999868,f,0,0.540635100000145,None,,,,,,,,,,1,001,2024-07-27_19h50.03.246,stroop,2024.1.5,None,2024-07-27 19h50.33.749824 +0800,
meaning.xlsx,meaning_exp.xlsx,含义,,,,,男保姆,pink,f,0,0,0,1,,,,,0,2,2,53,163.47645609999927,,,,,,,,,,,,,,,,,,,,,,,163.46659009999894,163.47645609999927,163.77713760000006,163.76599729999907,,,,,,,,,,,,,,,,,,,,,,,,,,163.7660176999998,163.77713760000006,163.77713760000006,164.5885828999999,f,1,0.8097202999997535,None,,,,,,,,,,1,001,2024-07-27_19h50.03.246,stroop,2024.1.5,None,2024-07-27 19h50.33.749824 +0800,
meaning.xlsx,meaning_exp.xlsx,含义,,,,,女程序员,black,j,0,0,0,1,,,,,0,3,3,15,164.5982342999996,,,,,,,,,,,,,,,,,,,,,,,164.58894829999917,164.5982342999996,164.90253839999968,164.8876866999999,,,,,,,,,,,,,,,,,,,,,,,,,,164.88770039999872,164.90253839999968,164.90253839999968,165.56595480000033,j,1,0.6593842000002041,None,,,,,,,,,,1,001,2024-07-27_19h50.03.246,stroop,2024.1.5,None,2024-07-27 19h50.33.749824 +0800,
meaning.xlsx,meaning_exp.xlsx,含义,,,,,保姆,black,x,0,0,0,1,,,,,0,4,4,7,165.57608119999895,,,,,,,,,,,,,,,,,,,,,,,165.5666941999989,165.57608119999895,165.8761316,165.86519009999938,,,,,,,,,,,,,,,,,,,,,,,,,,165.865205099999,165.8761316,165.8761316,166.55475399999887,f,0,0.6706355999995139,None,,,,,,,,,,1,001,2024-07-27_19h50.03.246,stroop,2024.1.5,None,2024-07-27 19h50.33.749824 +0800,
meaning.xlsx,meaning_exp.xlsx,含义,,,,,领导,black,x,0,0,0,1,,,,,0,5,5,3,166.5650831999992,,,,,,,,,,,,,,,,,,,,,,,166.55509150000034,166.5650831999992,166.86485650000031,166.85433790000025,,,,,,,,,,,,,,,,,,,,,,,,,,166.85435049999978,166.86485650000031,166.86485650000031,167.44371069999943,f,0,0.5716628000009223,None,,,,,,,,,,1,001,2024-07-27_19h50.03.246,stroop,2024.1.5,None,2024-07-27 19h50.33.749824 +0800,
meaning.xlsx,meaning_exp.xlsx,含义,,,,,男警察,black,f,0,0,0,1,,,,,0,6,6,8,167.45382789999894,,,,,,,,,,,,,,,,,,,,,,,167.44408119999935,167.45382789999894,167.75386660000004,167.7435616999992,,,,,,,,,,,,,,,,,,,,,,,,,,167.74357549999877,167.75386660000004,167.75386660000004,168.6661200999988,f,1,0.9091227000008075,None,,,,,,,,,,1,001,2024-07-27_19h50.03.246,stroop,2024.1.5,None,2024-07-27 19h50.33.749824 +0800,
meaning.xlsx,meaning_exp.xlsx,含义,,,,,程序员,pink,x,0,0,0,1,,,,,0,7,7,44,168.6764153999993,,,,,,,,,,,,,,,,,,,,,,,168.66648369999893,168.6764153999993,168.9760695999994,168.96525669999937,,,,,,,,,,,,,,,,,,,,,,,,,,168.96527199999946,168.9760695999994,168.9760695999994,169.57682999999997,f,0,0.5959312999984832,None,,,,,,,,,,1,001,2024-07-27_19h50.03.246,stroop,2024.1.5,None,2024-07-27 19h50.33.749824 +0800,
meaning.xlsx,meaning_exp.xlsx,含义,,,,,男领导,pink,f,0,0,0,1,,,,,0,8,8,49,169.5871903999996,,,,,,,,,,,,,,,,,,,,,,,169.57724059999964,169.5871903999996,169.88725309999973,169.87700519999999,,,,,,,,,,,,,,,,,,,,,,,,,,169.87702549999995,169.88725309999973,169.88725309999973,170.49968590000026,j,0,0.6091730999996798,None,,,,,,,,,,1,001,2024-07-27_19h50.03.246,stroop,2024.1.5,None,2024-07-27 19h50.33.749824 +0800,
meaning.xlsx,meaning_exp.xlsx,含义,,,,,女,blue,j,0,0,0,1,,,,,0,9,9,21,170.5097122999996,,,,,,,,,,,,,,,,,,,,,,,170.50010850000035,170.5097122999996,170.80914409999968,170.79853879999973,,,,,,,,,,,,,,,,,,,,,,,,,,170.79855429999952,170.80914409999968,170.80914409999968,172.79895209999995,None,0,,,172.8094979999987,172.8094979999987,,,,,,,,1,001,2024-07-27_19h50.03.246,stroop,2024.1.5,None,2024-07-27 19h50.33.749824 +0800,
meaning.xlsx,meaning_exp.xlsx,含义,,,,,男警察,pink,f,0,0,0,1,,,,,0,10,10,48,172.8094979999987,,,,,,,,,,,,,,,,,,,,,,,172.79930319999949,172.8094979999987,173.10941169999933,173.09875159999865,,,,,,,,,,,,,,,,,,,,,,,,,,173.09876710000026,173.10941169999933,173.10941169999933,173.92153770000004,f,1,0.8009347000006528,None,,,,,,,,,,1,001,2024-07-27_19h50.03.246,stroop,2024.1.5,None,2024-07-27 19h50.33.749824 +0800,
meaning.xlsx,meaning_exp.xlsx,含义,,,,,男领导,black,f,0,0,0,1,,,,,0,11,11,9,173.93166790000032,,,,,,,,,,,,,,,,,,,,,,,173.92188519999945,173.93166790000032,174.23133059999964,174.22082549999868,,,,,,,,,,,,,,,,,,,,,,,,,,174.22084559999894,174.23133059999964,174.23133059999964,174.82160029999977,f,1,0.5879586000010022,None,,,,,,,,,,1,001,2024-07-27_19h50.03.246,stroop,2024.1.5,None,2024-07-27 19h50.33.749824 +0800,
meaning.xlsx,meaning_exp.xlsx,含义,,,,,女老师,pink,j,0,0,0,1,,,,,0,12,12,56,174.83133929999894,,,,,,,,,,,,,,,,,,,,,,,174.8220040999986,174.83133929999894,175.13162799999918,175.12093679999998,,,,,,,,,,,,,,,,,,,,,,,,,,175.12095529999897,175.13162799999918,175.13162799999918,176.76553520000016,j,1,1.6301776000000245,None,,,,,,,,,,1,001,2024-07-27_19h50.03.246,stroop,2024.1.5,None,2024-07-27 19h50.33.749824 +0800,
meaning.xlsx,meaning_exp.xlsx,含义,,,,,男程序员,black,f,0,0,0,1,,,,,0,13,13,10,176.77597330000026,,,,,,,,,,,,,,,,,,,,,,,176.76585129999876,176.77597330000026,177.1337958999993,177.06552199999896,,,,,,,,,,,,,,,,,,,,,,,,,,177.06553600000007,177.1337958999993,177.1337958999993,177.74357849999978,f,1,0.6071154000001115,None,,,,,,,,,,1,001,2024-07-27_19h50.03.246,stroop,2024.1.5,None,2024-07-27 19h50.33.749824 +0800,
meaning.xlsx,meaning_exp.xlsx,含义,,,,,女程序员,blue,j,0,0,0,1,,,,,0,14,14,35,177.75359199999912,,,,,,,,,,,,,,,,,,,,,,,177.74394579999898,177.75359199999912,178.05384129999948,178.043448299999,,,,,,,,,,,,,,,,,,,,,,,,,,178.04346459999942,178.05384129999948,178.05384129999948,178.78749699999935,j,1,0.7231134999983624,None,,,,,,,,,,1,001,2024-07-27_19h50.03.246,stroop,2024.1.5,None,2024-07-27 19h50.33.749824 +0800,
meaning.xlsx,meaning_exp.xlsx,含义,,,,,女警察,pink,j,0,0,0,1,,,,,0,15,15,59,178.7979577999995,,,,,,,,,,,,,,,,,,,,,,,178.78796229999898,178.7979577999995,179.09824490000028,179.08747229999972,,,,,,,,,,,,,,,,,,,,,,,,,,179.08748949999972,179.09824490000028,179.09824490000028,179.6544916999992,j,1,0.5510506000009627,None,,,,,,,,,,1,001,2024-07-27_19h50.03.246,stroop,2024.1.5,None,2024-07-27 19h50.33.749824 +0800,
meaning.xlsx,meaning_exp.xlsx,含义,,,,,护士,purple,x,0,0,0,1,,,,,0,16,16,66,179.66481639999984,,,,,,,,,,,,,,,,,,,,,,,179.65483349999886,179.66481639999984,179.9646974999996,179.95406430000003,,,,,,,,,,,,,,,,,,,,,,,,,,179.9540920999989,179.9646974999996,179.9646974999996,181.9543088999999,None,0,,,181.96483099999932,181.96483099999932,,,,,,,,1,001,2024-07-27_19h50.03.246,stroop,2024.1.5,None,2024-07-27 19h50.33.749824 +0800,
meaning.xlsx,meaning_exp.xlsx,含义,,,,,男警察,blue,f,0,0,0,1,,,,,0,17,17,28,181.96483099999932,,,,,,,,,,,,,,,,,,,,,,,181.954608,181.96483099999932,182.2648604999995,182.25394789999882,,,,,,,,,,,,,,,,,,,,,,,,,,182.2539670999995,182.2648604999995,182.2648604999995,183.1097735000003,f,1,0.8372323000003234,None,,,,,,,,,,1,001,2024-07-27_19h50.03.246,stroop,2024.1.5,None,2024-07-27 19h50.33.749824 +0800,
meaning.xlsx,meaning_exp.xlsx,含义,,,,,男,purple,f,0,0,0,1,,,,,0,18,18,60,183.12014369999997,,,,,,,,,,,,,,,,,,,,,,,183.1101206000003,183.12014369999997,183.42017309999937,183.4092882999994,,,,,,,,,,,,,,,,,,,,,,,,,,183.40930389999994,183.42017309999937,183.42017309999937,183.9213063999996,f,1,0.5001873000001069,None,,,,,,,,,,1,001,2024-07-27_19h50.03.246,stroop,2024.1.5,None,2024-07-27 19h50.33.749824 +0800,
meaning.xlsx,meaning_exp.xlsx,含义,,,,,女领导,black,j,0,0,0,1,,,,,0,19,19,14,183.93117659999916,,,,,,,,,,,,,,,,,,,,,,,183.92165159999968,183.93117659999916,184.2314821,184.22067679999964,,,,,,,,,,,,,,,,,,,,,,,,,,184.22069069999998,184.2314821,184.2314821,184.99876029999905,j,1,0.7587657999993098,None,,,,,,,,,,1,001,2024-07-27_19h50.03.246,stroop,2024.1.5,None,2024-07-27 19h50.33.749824 +0800,
meaning.xlsx,meaning_exp.xlsx,含义,,,,,女,pink,j,0,0,0,1,,,,,0,20,20,41,185.00939219999964,,,,,,,,,,,,,,,,,,,,,,,184.9991646999988,185.00939219999964,185.30900309999925,185.29861600000004,,,,,,,,,,,,,,,,,,,,,,,,,,185.29863329999898,185.30900309999925,185.30900309999925,185.79845190000015,j,1,0.4831890999994357,None,,,,,,,,,,1,001,2024-07-27_19h50.03.246,stroop,2024.1.5,None,2024-07-27 19h50.33.749824 +0800,
meaning.xlsx,meaning_exp.xlsx,含义,,,,,男护士,blue,f,0,0,0,1,,,,,0,21,21,32,185.8088977999996,,,,,,,,,,,,,,,,,,,,,,,185.79887189999863,185.8088977999996,186.1089510999991,186.09842099999878,,,,,,,,,,,,,,,,,,,,,,,,,,186.09843939999882,186.1089510999991,186.1089510999991,186.6205743999999,f,1,0.5071556000002602,None,,,,,,,,,,1,001,2024-07-27_19h50.03.246,stroop,2024.1.5,None,2024-07-27 19h50.33.749824 +0800,
meaning.xlsx,meaning_exp.xlsx,含义,,,,,保姆,purple,x,0,0,0,1,,,,,0,22,22,67,186.631215899999,,,,,,,,,,,,,,,,,,,,,,,186.62128029999985,186.631215899999,186.93124869999883,186.92089829999895,,,,,,,,,,,,,,,,,,,,,,,,,,186.9209152000003,186.93124869999883,186.93124869999883,187.6319838999989,j,0,0.6959103999997751,None,,,,,,,,,,1,001,2024-07-27_19h50.03.246,stroop,2024.1.5,None,2024-07-27 19h50.33.749824 +0800,
meaning.xlsx,meaning_exp.xlsx,含义,,,,,男老师,purple,f,0,0,0,1,,,,,0,23,23,71,187.64225780000015,,,,,,,,,,,,,,,,,,,,,,,187.63230939999994,187.64225780000015,187.94228320000002,187.931865999999,,,,,,,,,,,,,,,,,,,,,,,,,,187.93187949999992,187.94228320000002,187.94228320000002,188.59872089999953,f,1,0.6497424999997747,None,,,,,,,,,,1,001,2024-07-27_19h50.03.246,stroop,2024.1.5,None,2024-07-27 19h50.33.749824 +0800,
meaning.xlsx,meaning_exp.xlsx,含义,,,,,None,None,None,0,0,0,1,,,,,0,24,24,81,188.60957189999863,,,,,,,,,,,,,,,,,,,,,,,188.59904459999962,188.60957189999863,188.90895009999986,188.8981232999995,,,,,,,,,,,,,,,,,,,,,,,,,,188.89813799999865,188.90895009999986,188.90895009999986,190.89833689999978,None,1,,,190.90948709999975,190.90948709999975,,,,,,,,1,001,2024-07-27_19h50.03.246,stroop,2024.1.5,None,2024-07-27 19h50.33.749824 +0800,
meaning.xlsx,meaning_exp.xlsx,含义,,,,,女领导,purple,j,0,0,0,1,,,,,0,25,25,74,190.90948709999975,,,,,,,,,,,,,,,,,,,,,,,190.898636599999,190.90948709999975,191.20886830000018,191.19823189999988,,,,,,,,,,,,,,,,,,,,,,,,,,191.19824700000026,191.20886830000018,191.20886830000018,192.08746789999896,j,1,0.8699438000003283,None,,,,,,,,,,1,001,2024-07-27_19h50.03.246,stroop,2024.1.5,None,2024-07-27 19h50.33.749824 +0800,
meaning.xlsx,meaning_exp.xlsx,含义,,,,,男,pink,f,0,0,0,1,,,,,0,26,26,40,192.09774239999933,,,,,,,,,,,,,,,,,,,,,,,192.08783799999946,192.09774239999933,192.39779249999992,192.38699239999914,,,,,,,,,,,,,,,,,,,,,,,,,,192.38701559999936,192.39779249999992,192.39779249999992,192.92142149999927,f,1,0.5152840000009746,None,,,,,,,,,,1,001,2024-07-27_19h50.03.246,stroop,2024.1.5,None,2024-07-27 19h50.33.749824 +0800,
meaning.xlsx,meaning_exp.xlsx,含义,,,,,男老师,pink,f,0,0,0,1,,,,,0,27,27,51,192.93125549999968,,,,,,,,,,,,,,,,,,,,,,,192.92183449999902,192.93125549999968,193.23116329999903,193.22036539999863,,,,,,,,,,,,,,,,,,,,,,,,,,193.22038090000024,193.23116329999903,193.23116329999903,193.87657199999921,f,1,0.6353190999998333,None,,,,,,,,,,1,001,2024-07-27_19h50.03.246,stroop,2024.1.5,None,2024-07-27 19h50.33.749824 +0800,
meaning.xlsx,meaning_exp.xlsx,含义,,,,,领导,pink,x,0,0,0,1,,,,,0,28,28,43,193.88676490000034,,,,,,,,,,,,,,,,,,,,,,,193.87704940000003,193.88676490000034,194.18650969999908,194.1758009999994,,,,,,,,,,,,,,,,,,,,,,,,,,194.1758160999998,194.18650969999908,194.18650969999908,194.9103785999996,f,0,0.712790200001109,None,,,,,,,,,,1,001,2024-07-27_19h50.03.246,stroop,2024.1.5,None,2024-07-27 19h50.33.749824 +0800,
meaning.xlsx,meaning_exp.xlsx,含义,,,,,男程序员,purple,f,0,0,0,1,,,,,0,29,29,70,194.920157999999,,,,,,,,,,,,,,,,,,,,,,,194.91076710000016,194.920157999999,195.21997139999985,195.20933270000023,,,,,,,,,,,,,,,,,,,,,,,,,,195.20935019999888,195.21997139999985,195.21997139999985,195.68742159999965,f,1,0.46586199999910605,None,,,,,,,,,,1,001,2024-07-27_19h50.03.246,stroop,2024.1.5,None,2024-07-27 19h50.33.749824 +0800,
meaning.xlsx,meaning_exp.xlsx,含义,,,,,None,None,None,0,0,0,1,,,,,0,30,30,82,195.69758329999968,,,,,,,,,,,,,,,,,,,,,,,195.68786960000034,195.69758329999968,195.9976287999998,195.9870780000001,,,,,,,,,,,,,,,,,,,,,,,,,,195.98709269999927,195.9976287999998,195.9976287999998,197.98721060000025,None,1,,,197.99767919999977,197.99767919999977,,,,,,,,1,001,2024-07-27_19h50.03.246,stroop,2024.1.5,None,2024-07-27 19h50.33.749824 +0800,
meaning.xlsx,meaning_exp.xlsx,含义,,,,,男保姆,black,f,0,0,0,1,,,,,0,31,31,13,197.99767919999977,,,,,,,,,,,,,,,,,,,,,,,197.9875734999987,197.99767919999977,198.29755999999907,198.28691239999898,,,,,,,,,,,,,,,,,,,,,,,,,,198.28693070000008,198.29755999999907,198.29755999999907,198.69841259999885,f,1,0.39590729999872565,None,,,,,,,,,,1,001,2024-07-27_19h50.03.246,stroop,2024.1.5,None,2024-07-27 19h50.33.749824 +0800,
meaning.xlsx,meaning_exp.xlsx,含义,,,,,男,black,f,0,0,0,1,,,,,0,32,32,0,198.7088337999994,,,,,,,,,,,,,,,,,,,,,,,198.6988724999992,198.7088337999994,199.0087550999997,198.99811369999952,,,,,,,,,,,,,,,,,,,,,,,,,,198.99813059999906,199.0087550999997,199.0087550999997,199.3761158999987,f,1,0.36607550000007905,None,,,,,,,,,,1,001,2024-07-27_19h50.03.246,stroop,2024.1.5,None,2024-07-27 19h50.33.749824 +0800,
meaning.xlsx,meaning_exp.xlsx,含义,,,,,女护士,black,j,0,0,0,1,,,,,0,33,33,17,199.38657439999952,,,,,,,,,,,,,,,,,,,,,,,199.37644379999983,199.38657439999952,199.6866063999987,199.6760280999988,,,,,,,,,,,,,,,,,,,,,,,,,,199.67604669999855,199.6866063999987,199.6866063999987,200.17665849999867,j,1,0.4819214999988617,None,,,,,,,,,,1,001,2024-07-27_19h50.03.246,stroop,2024.1.5,None,2024-07-27 19h50.33.749824 +0800,
meaning.xlsx,meaning_exp.xlsx,含义,,,,,警察,purple,x,0,0,0,1,,,,,0,34,34,62,200.1864601999987,,,,,,,,,,,,,,,,,,,,,,,200.1771480999996,200.1864601999987,200.4866062000001,200.47589030000017,,,,,,,,,,,,,,,,,,,,,,,,,,200.47590429999946,200.4866062000001,200.4866062000001,201.06539039999916,f,0,0.5723773000008805,None,,,,,,,,,,1,001,2024-07-27_19h50.03.246,stroop,2024.1.5,None,2024-07-27 19h50.33.749824 +0800,
meaning.xlsx,meaning_exp.xlsx,含义,,,,,男老师,blue,f,0,0,0,1,,,,,0,35,35,31,201.07531799999924,,,,,,,,,,,,,,,,,,,,,,,201.06576349999887,201.07531799999924,201.3755713999999,201.36508440000034,,,,,,,,,,,,,,,,,,,,,,,,,,201.36510409999937,201.3755713999999,201.3755713999999,201.79836969999997,f,1,0.41283129999828816,None,,,,,,,,,,1,001,2024-07-27_19h50.03.246,stroop,2024.1.5,None,2024-07-27 19h50.33.749824 +0800,
meaning.xlsx,meaning_exp.xlsx,含义,,,,,男警察,purple,f,0,0,0,1,,,,,0,36,36,68,201.81369579999955,,,,,,,,,,,,,,,,,,,,,,,201.79869419999886,201.81369579999955,202.10857020000003,202.0978985999991,,,,,,,,,,,,,,,,,,,,,,,,,,202.09791649999897,202.10857020000003,202.10857020000003,202.4984113999999,f,1,0.3840757999987545,None,,,,,,,,,,1,001,2024-07-27_19h50.03.246,stroop,2024.1.5,None,2024-07-27 19h50.33.749824 +0800,
meaning.xlsx,meaning_exp.xlsx,含义,,,,,保姆,blue,x,0,0,0,1,,,,,0,37,37,27,202.5087808999997,,,,,,,,,,,,,,,,,,,,,,,202.49872329999926,202.5087808999997,202.80859619999865,202.79781639999965,,,,,,,,,,,,,,,,,,,,,,,,,,202.7978296000001,202.80859619999865,202.80859619999865,203.47635889999947,j,0,0.6611890999993193,None,,,,,,,,,,1,001,2024-07-27_19h50.03.246,stroop,2024.1.5,None,2024-07-27 19h50.33.749824 +0800,
meaning.xlsx,meaning_exp.xlsx,含义,,,,,程序员,blue,x,0,0,0,1,,,,,0,38,38,24,203.48638570000003,,,,,,,,,,,,,,,,,,,,,,,203.47669809999934,203.48638570000003,203.78646060000028,203.77574999999888,,,,,,,,,,,,,,,,,,,,,,,,,,203.77576539999973,203.78646060000028,203.78646060000028,204.3765244999995,f,0,0.5864653999997245,None,,,,,,,,,,1,001,2024-07-27_19h50.03.246,stroop,2024.1.5,None,2024-07-27 19h50.33.749824 +0800,
meaning.xlsx,meaning_exp.xlsx,含义,,,,,领导,blue,x,0,0,0,1,,,,,0,39,39,23,204.3867164000003,,,,,,,,,,,,,,,,,,,,,,,204.37694679999913,204.3867164000003,204.6862872999991,204.67581889999929,,,,,,,,,,,,,,,,,,,,,,,,,,204.67583699999886,204.6862872999991,204.6862872999991,205.24340779999875,f,0,0.5464666999996552,None,,,,,,,,,,1,001,2024-07-27_19h50.03.246,stroop,2024.1.5,None,2024-07-27 19h50.33.749824 +0800,
meaning.xlsx,meaning_exp.xlsx,含义,,,,,男程序员,pink,f,0,0,0,1,,,,,0,40,40,50,205.25319839999975,,,,,,,,,,,,,,,,,,,,,,,205.24373790000027,205.25319839999975,205.55310709999867,205.5426537000003,,,,,,,,,,,,,,,,,,,,,,,,,,205.5426669999997,205.55310709999867,205.55310709999867,206.07594979999885,f,1,0.5128843000002234,None,,,,,,,,,,1,001,2024-07-27_19h50.03.246,stroop,2024.1.5,None,2024-07-27 19h50.33.749824 +0800,
meaning.xlsx,meaning_exp.xlsx,含义,,,,,警察,blue,x,0,0,0,1,,,,,0,41,41,22,206.08626749999894,,,,,,,,,,,,,,,,,,,,,,,206.07630160000008,206.08626749999894,206.38640870000017,206.37575920000018,,,,,,,,,,,,,,,,,,,,,,,,,,206.3757783000001,206.38640870000017,206.38640870000017,206.98726119999992,f,0,0.5931671999987884,None,,,,,,,,,,1,001,2024-07-27_19h50.03.246,stroop,2024.1.5,None,2024-07-27 19h50.33.749824 +0800,
meaning.xlsx,meaning_exp.xlsx,含义,,,,,女老师,blue,j,0,0,0,1,,,,,0,42,42,36,206.99735319999854,,,,,,,,,,,,,,,,,,,,,,,206.98765119999916,206.99735319999854,207.29759289999856,207.28713450000032,,,,,,,,,,,,,,,,,,,,,,,,,,207.28714919999948,207.29759289999856,207.29759289999856,207.78716249999889,j,1,0.48015180000038526,None,,,,,,,,,,1,001,2024-07-27_19h50.03.246,stroop,2024.1.5,None,2024-07-27 19h50.33.749824 +0800,
meaning.xlsx,meaning_exp.xlsx,含义,,,,,男老师,black,f,0,0,0,1,,,,,0,43,43,11,207.79744070000015,,,,,,,,,,,,,,,,,,,,,,,207.7875568999989,207.79744070000015,208.09750030000032,208.08662699999877,,,,,,,,,,,,,,,,,,,,,,,,,,208.08664449999924,208.09750030000032,208.09750030000032,208.55377450000015,f,1,0.4525006999992911,None,,,,,,,,,,1,001,2024-07-27_19h50.03.246,stroop,2024.1.5,None,2024-07-27 19h50.33.749824 +0800,
meaning.xlsx,meaning_exp.xlsx,含义,,,,,女程序员,purple,j,0,0,0,1,,,,,0,44,44,75,208.56413119999888,,,,,,,,,,,,,,,,,,,,,,,208.55410250000023,208.56413119999888,208.86435299999903,208.85355639999943,,,,,,,,,,,,,,,,,,,,,,,,,,208.8535721999997,208.86435299999903,208.86435299999903,209.3425599000002,j,1,0.4676390000004176,None,,,,,,,,,,1,001,2024-07-27_19h50.03.246,stroop,2024.1.5,None,2024-07-27 19h50.33.749824 +0800,
meaning.xlsx,meaning_exp.xlsx,含义,,,,,女老师,black,j,0,0,0,1,,,,,0,45,45,16,209.35298019999937,,,,,,,,,,,,,,,,,,,,,,,209.34299959999953,209.35298019999937,209.65306149999924,209.64268110000012,,,,,,,,,,,,,,,,,,,,,,,,,,209.64270059999944,209.65306149999924,209.65306149999924,209.9981962999991,f,0,0.3396996000010404,None,,,,,,,,,,1,001,2024-07-27_19h50.03.246,stroop,2024.1.5,None,2024-07-27 19h50.33.749824 +0800,
meaning.xlsx,meaning_exp.xlsx,含义,,,,,男,blue,f,0,0,0,1,,,,,0,46,46,20,210.00848119999864,,,,,,,,,,,,,,,,,,,,,,,209.99862889999895,210.00848119999864,210.3085013,210.2981779999991,,,,,,,,,,,,,,,,,,,,,,,,,,210.2981977999989,210.3085013,210.3085013,210.8540482999997,f,1,0.5419715999996697,None,,,,,,,,,,1,001,2024-07-27_19h50.03.246,stroop,2024.1.5,None,2024-07-27 19h50.33.749824 +0800,
meaning.xlsx,meaning_exp.xlsx,含义,,,,,女保姆,purple,j,0,0,0,1,,,,,0,47,47,78,210.86449960000027,,,,,,,,,,,,,,,,,,,,,,,210.85448709999946,210.86449960000027,211.16409439999916,211.15351209999972,,,,,,,,,,,,,,,,,,,,,,,,,,211.15352939999866,211.16409439999916,211.16409439999916,211.6985781000003,j,1,0.5299512000001414,None,,,,,,,,,,1,001,2024-07-27_19h50.03.246,stroop,2024.1.5,None,2024-07-27 19h50.33.749824 +0800,
meaning.xlsx,meaning_exp.xlsx,含义,,,,,女保姆,pink,j,0,0,0,1,,,,,0,48,48,58,211.7084804999995,,,,,,,,,,,,,,,,,,,,,,,211.69889609999882,211.7084804999995,212.00870549999854,211.9979886000001,,,,,,,,,,,,,,,,,,,,,,,,,,211.99800949999917,212.00870549999854,212.00870549999854,212.43140729999868,j,1,0.4115915000002133,None,,,,,,,,,,1,001,2024-07-27_19h50.03.246,stroop,2024.1.5,None,2024-07-27 19h50.33.749824 +0800,
meaning.xlsx,meaning_exp.xlsx,含义,,,,,男领导,blue,f,0,0,0,1,,,,,0,49,49,29,212.4421661999986,,,,,,,,,,,,,,,,,,,,,,,212.43178839999928,212.4421661999986,212.74198219999926,212.73118559999966,,,,,,,,,,,,,,,,,,,,,,,,,,212.7312026999989,212.74198219999926,212.74198219999926,213.18721539999933,j,0,0.4388764000013907,None,,,,,,,,,,1,001,2024-07-27_19h50.03.246,stroop,2024.1.5,None,2024-07-27 19h50.33.749824 +0800,
meaning.xlsx,meaning_exp.xlsx,含义,,,,,女护士,purple,j,0,0,0,1,,,,,0,50,50,77,213.1972057999992,,,,,,,,,,,,,,,,,,,,,,,213.18753389999983,213.1972057999992,213.49739699999918,213.4864822999989,,,,,,,,,,,,,,,,,,,,,,,,,,213.48650049999924,213.49739699999918,213.49739699999918,214.04297059999953,f,0,0.5441393000000971,None,,,,,,,,,,1,001,2024-07-27_19h50.03.246,stroop,2024.1.5,None,2024-07-27 19h50.33.749824 +0800,
meaning.xlsx,meaning_exp.xlsx,含义,,,,,男程序员,blue,f,0,0,0,1,,,,,0,51,51,30,214.05288119999932,,,,,,,,,,,,,,,,,,,,,,,214.04331169999932,214.05288119999932,214.35305619999963,214.34227949999877,,,,,,,,,,,,,,,,,,,,,,,,,,214.34229539999978,214.35305619999963,214.35305619999963,214.8867864999993,f,1,0.5231276000013168,None,,,,,,,,,,1,001,2024-07-27_19h50.03.246,stroop,2024.1.5,None,2024-07-27 19h50.33.749824 +0800,
meaning.xlsx,meaning_exp.xlsx,含义,,,,,女护士,pink,j,0,0,0,1,,,,,0,52,52,57,214.89734119999957,,,,,,,,,,,,,,,,,,,,,,,214.88710290000017,214.89734119999957,215.1973382999986,215.18671379999978,,,,,,,,,,,,,,,,,,,,,,,,,,215.18672869999864,215.1973382999986,215.1973382999986,215.67618989999937,j,1,0.470595200000389,None,,,,,,,,,,1,001,2024-07-27_19h50.03.246,stroop,2024.1.5,None,2024-07-27 19h50.33.749824 +0800,
meaning.xlsx,meaning_exp.xlsx,含义,,,,,女,purple,j,0,0,0,1,,,,,0,53,53,61,215.68616420000035,,,,,,,,,,,,,,,,,,,,,,,215.6765431999993,215.68616420000035,215.98637140000028,215.9754938999995,,,,,,,,,,,,,,,,,,,,,,,,,,215.97550769999907,215.98637140000028,215.98637140000028,216.46443179999915,j,1,0.46897750000061933,None,,,,,,,,,,1,001,2024-07-27_19h50.03.246,stroop,2024.1.5,None,2024-07-27 19h50.33.749824 +0800,
meaning.xlsx,meaning_exp.xlsx,含义,,,,,女老师,purple,j,0,0,0,1,,,,,0,54,54,76,216.47497569999905,,,,,,,,,,,,,,,,,,,,,,,216.4647901999997,216.47497569999905,216.77517999999873,216.76470209999934,,,,,,,,,,,,,,,,,,,,,,,,,,216.7647208999988,216.77517999999873,216.77517999999873,217.1203545999997,j,1,0.33839160000025004,None,,,,,,,,,,1,001,2024-07-27_19h50.03.246,stroop,2024.1.5,None,2024-07-27 19h50.33.749824 +0800,
meaning.xlsx,meaning_exp.xlsx,含义,,,,,None,None,None,0,0,0,1,,,,,0,55,55,80,217.13072219999958,,,,,,,,,,,,,,,,,,,,,,,217.1206777999996,217.13072219999958,217.43052279999938,217.419754999999,,,,,,,,,,,,,,,,,,,,,,,,,,217.41976729999988,217.43052279999938,217.43052279999938,219.41977159999988,None,1,,,219.43069149999974,219.43069149999974,,,,,,,,1,001,2024-07-27_19h50.03.246,stroop,2024.1.5,None,2024-07-27 19h50.33.749824 +0800,
meaning.xlsx,meaning_exp.xlsx,含义,,,,,女领导,pink,j,0,0,0,1,,,,,0,56,56,54,219.43069149999974,,,,,,,,,,,,,,,,,,,,,,,219.42006389999915,219.43069149999974,219.73056259999976,219.72002979999888,,,,,,,,,,,,,,,,,,,,,,,,,,219.72006639999927,219.73056259999976,219.73056259999976,220.33238119999987,j,1,0.5935306999999739,None,,,,,,,,,,1,001,2024-07-27_19h50.03.246,stroop,2024.1.5,None,2024-07-27 19h50.33.749824 +0800,
meaning.xlsx,meaning_exp.xlsx,含义,,,,,男护士,purple,f,0,0,0,1,,,,,0,57,57,72,220.3418375000001,,,,,,,,,,,,,,,,,,,,,,,220.332784799999,220.3418375000001,220.64178600000014,220.63116909999917,,,,,,,,,,,,,,,,,,,,,,,,,,220.6311851999999,220.64178600000014,220.64178600000014,221.46480519999932,f,1,0.8136094000001322,None,,,,,,,,,,1,001,2024-07-27_19h50.03.246,stroop,2024.1.5,None,2024-07-27 19h50.33.749824 +0800,
meaning.xlsx,meaning_exp.xlsx,含义,,,,,女保姆,black,j,0,0,0,1,,,,,0,58,58,18,221.4749458999995,,,,,,,,,,,,,,,,,,,,,,,221.46515759999966,221.4749458999995,221.7750261000001,221.76441749999867,,,,,,,,,,,,,,,,,,,,,,,,,,221.76443539999855,221.7750261000001,221.7750261000001,222.35378069999933,j,1,0.573560599999837,None,,,,,,,,,,1,001,2024-07-27_19h50.03.246,stroop,2024.1.5,None,2024-07-27 19h50.33.749824 +0800,
meaning.xlsx,meaning_exp.xlsx,含义,,,,,护士,black,x,0,0,0,1,,,,,0,59,59,6,222.36401879999903,,,,,,,,,,,,,,,,,,,,,,,222.35411829999975,222.36401879999903,222.66390320000028,222.65337550000004,,,,,,,,,,,,,,,,,,,,,,,,,,222.65339119999953,222.66390320000028,222.66390320000028,223.47575979999965,j,0,0.806603000000905,None,,,,,,,,,,1,001,2024-07-27_19h50.03.246,stroop,2024.1.5,None,2024-07-27 19h50.33.749824 +0800,
meaning.xlsx,meaning_exp.xlsx,含义,,,,,程序员,purple,x,0,0,0,1,,,,,0,60,60,64,223.48615590000009,,,,,,,,,,,,,,,,,,,,,,,223.47610609999901,223.48615590000009,223.78634349999993,223.77560799999992,,,,,,,,,,,,,,,,,,,,,,,,,,223.77562430000035,223.78634349999993,223.78634349999993,224.30892889999996,f,0,0.5117936999995436,None,,,,,,,,,,1,001,2024-07-27_19h50.03.246,stroop,2024.1.5,None,2024-07-27 19h50.33.749824 +0800,
meaning.xlsx,meaning_exp.xlsx,含义,,,,,警察,black,x,0,0,0,1,,,,,0,61,61,2,224.31949910000003,,,,,,,,,,,,,,,,,,,,,,,224.30927089999932,224.31949910000003,224.61936119999882,224.6086880999992,,,,,,,,,,,,,,,,,,,,,,,,,,224.6087056999986,224.61936119999882,224.61936119999882,225.09809250000035,f,0,0.47647890000007465,None,,,,,,,,,,1,001,2024-07-27_19h50.03.246,stroop,2024.1.5,None,2024-07-27 19h50.33.749824 +0800,
meaning.xlsx,meaning_exp.xlsx,含义,,,,,女警察,black,j,0,0,0,1,,,,,0,62,62,19,225.10833399999865,,,,,,,,,,,,,,,,,,,,,,,225.09846709999874,225.10833399999865,225.40846169999895,225.3977090999997,,,,,,,,,,,,,,,,,,,,,,,,,,225.39772249999987,225.40846169999895,225.40846169999895,225.89779709999857,j,1,0.48139910000099917,None,,,,,,,,,,1,001,2024-07-27_19h50.03.246,stroop,2024.1.5,None,2024-07-27 19h50.33.749824 +0800,
meaning.xlsx,meaning_exp.xlsx,含义,,,,,男领导,purple,f,0,0,0,1,,,,,0,63,63,69,225.90811009999925,,,,,,,,,,,,,,,,,,,,,,,225.8981272000001,225.90811009999925,226.20831369999905,226.19765129999905,,,,,,,,,,,,,,,,,,,,,,,,,,226.19766600000003,226.20831369999905,226.20831369999905,226.7090533999999,f,1,0.4901004000003013,None,,,,,,,,,,1,001,2024-07-27_19h50.03.246,stroop,2024.1.5,None,2024-07-27 19h50.33.749824 +0800,
meaning.xlsx,meaning_exp.xlsx,含义,,,,,男护士,pink,f,0,0,0,1,,,,,0,64,64,52,226.7193589999988,,,,,,,,,,,,,,,,,,,,,,,226.70934159999888,226.7193589999988,227.01963619999879,227.0088440999989,,,,,,,,,,,,,,,,,,,,,,,,,,227.00886189999983,227.01963619999879,227.01963619999879,227.46465100000023,f,1,0.4419687999998132,None,,,,,,,,,,1,001,2024-07-27_19h50.03.246,stroop,2024.1.5,None,2024-07-27 19h50.33.749824 +0800,
meaning.xlsx,meaning_exp.xlsx,含义,,,,,女保姆,blue,j,0,0,0,1,,,,,0,65,65,38,227.47486349999963,,,,,,,,,,,,,,,,,,,,,,,227.46503669999947,227.47486349999963,227.77500770000006,227.7641965999992,,,,,,,,,,,,,,,,,,,,,,,,,,227.7642135999995,227.77500770000006,227.77500770000006,228.32015519999914,j,1,0.534585600000355,None,,,,,,,,,,1,001,2024-07-27_19h50.03.246,stroop,2024.1.5,None,2024-07-27 19h50.33.749824 +0800,
meaning.xlsx,meaning_exp.xlsx,含义,,,,,男护士,black,f,0,0,0,1,,,,,0,66,66,12,228.33105649999925,,,,,,,,,,,,,,,,,,,,,,,228.32060189999902,228.33105649999925,228.63040819999878,228.6200921999989,,,,,,,,,,,,,,,,,,,,,,,,,,228.62010720000035,228.63040819999878,228.63040819999878,228.9652772999998,f,1,0.32410170000002836,None,,,,,,,,,,1,001,2024-07-27_19h50.03.246,stroop,2024.1.5,None,2024-07-27 19h50.33.749824 +0800,
meaning.xlsx,meaning_exp.xlsx,含义,,,,,男保姆,purple,f,0,0,0,1,,,,,0,67,67,73,228.9747970999997,,,,,,,,,,,,,,,,,,,,,,,228.96568320000006,228.9747970999997,229.27484129999903,229.26410860000033,,,,,,,,,,,,,,,,,,,,,,,,,,229.26412600000003,229.27484129999903,229.27484129999903,229.742578899999,f,1,0.4608810000008816,None,,,,,,,,,,1,001,2024-07-27_19h50.03.246,stroop,2024.1.5,None,2024-07-27 19h50.33.749824 +0800,
meaning.xlsx,meaning_exp.xlsx,含义,,,,,男保姆,blue,f,0,0,0,1,,,,,0,68,68,33,229.7526440999991,,,,,,,,,,,,,,,,,,,,,,,229.7429562999987,229.7526440999991,230.0525402000003,230.04193889999988,,,,,,,,,,,,,,,,,,,,,,,,,,230.04195599999912,230.0525402000003,230.0525402000003,230.49788099999932,f,1,0.4355027000001428,None,,,,,,,,,,1,001,2024-07-27_19h50.03.246,stroop,2024.1.5,None,2024-07-27 19h50.33.749824 +0800,
meaning.xlsx,meaning_exp.xlsx,含义,,,,,女程序员,pink,j,0,0,0,1,,,,,0,69,69,55,230.5081586999986,,,,,,,,,,,,,,,,,,,,,,,230.49827860000005,230.5081586999986,230.80841969999892,230.79764780000005,,,,,,,,,,,,,,,,,,,,,,,,,,230.79766389999895,230.80841969999892,230.80841969999892,231.2203204999987,j,1,0.40133289999903354,None,,,,,,,,,,1,001,2024-07-27_19h50.03.246,stroop,2024.1.5,None,2024-07-27 19h50.33.749824 +0800,
meaning.xlsx,meaning_exp.xlsx,含义,,,,,女护士,blue,j,0,0,0,1,,,,,0,70,70,37,231.23049999999967,,,,,,,,,,,,,,,,,,,,,,,231.22068079999917,231.23049999999967,231.5305814000003,231.5197150999993,,,,,,,,,,,,,,,,,,,,,,,,,,231.51973240000007,231.5305814000003,231.5305814000003,231.89774020000004,j,1,0.3565396000012697,None,,,,,,,,,,1,001,2024-07-27_19h50.03.246,stroop,2024.1.5,None,2024-07-27 19h50.33.749824 +0800,
meaning.xlsx,meaning_exp.xlsx,含义,,,,,女警察,purple,j,0,0,0,1,,,,,0,71,71,79,231.90803090000009,,,,,,,,,,,,,,,,,,,,,,,231.8980950999994,231.90803090000009,232.20811729999878,232.19736719999855,,,,,,,,,,,,,,,,,,,,,,,,,,232.1973827999991,232.20811729999878,232.20811729999878,232.5208752999988,j,1,0.30938509999941743,None,,,,,,,,,,1,001,2024-07-27_19h50.03.246,stroop,2024.1.5,None,2024-07-27 19h50.33.749824 +0800,
meaning.xlsx,meaning_exp.xlsx,含义,,,,,护士,blue,x,0,0,0,1,,,,,0,72,72,26,232.53031569999985,,,,,,,,,,,,,,,,,,,,,,,232.52122149999923,232.53031569999985,232.83033129999967,232.81948639999973,,,,,,,,,,,,,,,,,,,,,,,,,,232.81949840000016,232.83033129999967,232.83033129999967,233.44221169999946,j,0,0.6065588000001298,None,,,,,,,,,,1,001,2024-07-27_19h50.03.246,stroop,2024.1.5,None,2024-07-27 19h50.33.749824 +0800,
meaning.xlsx,meaning_exp.xlsx,含义,,,,,老师,blue,x,0,0,0,1,,,,,0,73,73,25,233.45264029999998,,,,,,,,,,,,,,,,,,,,,,,233.44269340000028,233.45264029999998,233.75753160000022,233.74221119999856,,,,,,,,,,,,,,,,,,,,,,,,,,233.74222689999988,233.75753160000022,233.75753160000022,234.25384619999932,f,0,0.49148330000025453,None,,,,,,,,,,1,001,2024-07-27_19h50.03.246,stroop,2024.1.5,None,2024-07-27 19h50.33.749824 +0800,
meaning.xlsx,meaning_exp.xlsx,含义,,,,,老师,purple,x,0,0,0,1,,,,,0,74,74,65,234.26361840000027,,,,,,,,,,,,,,,,,,,,,,,234.25413939999999,234.26361840000027,234.56387209999957,234.5532088,,,,,,,,,,,,,,,,,,,,,,,,,,234.55321919999915,234.56387209999957,234.56387209999957,235.0198049999999,f,0,0.45286750000013853,None,,,,,,,,,,1,001,2024-07-27_19h50.03.246,stroop,2024.1.5,None,2024-07-27 19h50.33.749824 +0800,
meaning.xlsx,meaning_exp.xlsx,含义,,,,,女警察,blue,j,0,0,0,1,,,,,0,75,75,39,235.03045219999876,,,,,,,,,,,,,,,,,,,,,,,235.020126899999,235.03045219999876,235.3302384999988,235.3195608999995,,,,,,,,,,,,,,,,,,,,,,,,,,235.31957619999957,235.3302384999988,235.3302384999988,235.72021609999865,f,0,0.3836092000001372,None,,,,,,,,,,1,001,2024-07-27_19h50.03.246,stroop,2024.1.5,None,2024-07-27 19h50.33.749824 +0800,
meaning.xlsx,meaning_exp.xlsx,含义,,,,,老师,pink,x,0,0,0,1,,,,,0,76,76,45,235.73020499999984,,,,,,,,,,,,,,,,,,,,,,,235.7205758,235.73020499999984,236.03041139999914,236.01972699999897,,,,,,,,,,,,,,,,,,,,,,,,,,236.01974439999867,236.03041139999914,236.03041139999914,236.84249699999964,j,0,0.801322600000276,None,,,,,,,,,,1,001,2024-07-27_19h50.03.246,stroop,2024.1.5,None,2024-07-27 19h50.33.749824 +0800,
meaning.xlsx,meaning_exp.xlsx,含义,,,,,女领导,blue,j,0,0,0,1,,,,,0,77,77,34,236.85272329999862,,,,,,,,,,,,,,,,,,,,,,,236.84290109999893,236.85272329999862,237.15263400000003,237.14224119999926,,,,,,,,,,,,,,,,,,,,,,,,,,237.14227140000003,237.15263400000003,237.15263400000003,237.5533803999988,j,1,0.39052600000104576,None,,,,,,,,,,1,001,2024-07-27_19h50.03.246,stroop,2024.1.5,None,2024-07-27 19h50.33.749824 +0800,
meaning.xlsx,meaning_exp.xlsx,含义,,,,,女,black,j,0,0,0,1,,,,,0,78,78,1,237.5637784999999,,,,,,,,,,,,,,,,,,,,,,,237.5537800000002,237.5637784999999,237.86383539999952,237.8528682999986,,,,,,,,,,,,,,,,,,,,,,,,,,237.85287919999973,237.86383539999952,237.86383539999952,238.28686409999864,j,1,0.41297470000063186,None,,,,,,,,,,1,001,2024-07-27_19h50.03.246,stroop,2024.1.5,None,2024-07-27 19h50.33.749824 +0800,
meaning.xlsx,meaning_exp.xlsx,含义,,,,,保姆,pink,x,0,0,0,1,,,,,0,79,79,47,238.29711599999973,,,,,,,,,,,,,,,,,,,,,,,238.2872226999989,238.29711599999973,238.59694949999903,238.5865634999991,,,,,,,,,,,,,,,,,,,,,,,,,,238.5865907999996,238.59694949999903,238.59694949999903,239.04313039999943,j,0,0.4447424999998475,None,,,,,,,,,,1,001,2024-07-27_19h50.03.246,stroop,2024.1.5,None,2024-07-27 19h50.33.749824 +0800,
meaning.xlsx,meaning_exp.xlsx,含义,,,,,护士,pink,x,0,0,0,1,,,,,0,80,80,46,239.05252010000004,,,,,,,,,,,,,,,,,,,,,,,239.04349120000006,239.05252010000004,239.35264649999954,239.34199160000026,,,,,,,,,,,,,,,,,,,,,,,,,,239.34200729999975,239.35264649999954,239.35264649999954,239.7424833999994,j,0,0.38329239999984566,None,,,,,,,,,,1,001,2024-07-27_19h50.03.246,stroop,2024.1.5,None,2024-07-27 19h50.33.749824 +0800,
meaning.xlsx,meaning_exp.xlsx,含义,,,,,程序员,black,x,0,0,0,1,,,,,0,81,81,4,239.75271339999927,,,,,,,,,,,,,,,,,,,,,,,239.74288290000004,239.75271339999927,240.05250019999949,240.04166929999883,,,,,,,,,,,,,,,,,,,,,,,,,,240.04168409999875,240.05250019999949,240.05250019999949,240.87540459999946,f,0,0.8214150999992853,None,,,,,,,,,,1,001,2024-07-27_19h50.03.246,stroop,2024.1.5,None,2024-07-27 19h50.33.749824 +0800,
meaning.xlsx,meaning_exp.xlsx,含义,,,,,警察,pink,x,0,0,0,1,,,,,0,82,82,42,240.88596799999868,,,,,,,,,,,,,,,,,,,,,,,240.87572290000026,240.88596799999868,241.18595789999927,241.17498890000024,,,,,,,,,,,,,,,,,,,,,,,,,,241.17500370000016,241.18595789999927,241.18595789999927,241.55327839999882,f,0,0.3638718999991397,None,,,,,,,,,,1,001,2024-07-27_19h50.03.246,stroop,2024.1.5,None,2024-07-27 19h50.33.749824 +0800,
meaning.xlsx,meaning_exp.xlsx,含义,,,,,,,,0,0,0,1,,,,,,,,,,,,,,,,,,,,,,,,,,,,,,,,,,,,,,,,,,,,,,,,,,,,,,,,,,,,,,,,,,,,,,,,,,,,,,1,001,2024-07-27_19h50.03.246,stroop,2024.1.5,None,2024-07-27 19h50.33.749824 +0800,
color.xlsx,color_exp.xlsx,颜色,男,black,A,黑色,,,,0,1,1,0,0,0,0,8,,,,,265.2565321000002,,,,,,,,,,,,,,,,241.5536331000003,241.60738179999862,241.60738179999862,265.24235469999985,space,23.62432290000106,None,265.2511588999987,265.2565321000002,265.5875301999986,265.5413278999986,265.5413458000003,265.5875301999986,265.5875301999986,265.5875301999986,266.31945519999863,a,0,0.721252800000002,None,266.3198948999998,266.3369351000001,266.3369351000001,268.32988469999873,None,,,,,,,,,,,,,,,,,,,,,,,,,,,,,1,001,2024-07-27_19h50.03.246,stroop,2024.1.5,None,2024-07-27 19h50.33.749824 +0800,
color.xlsx,color_exp.xlsx,颜色,女,purple,L,紫色,,,,0,1,1,0,0,1,1,11,,,,,268.34093269999903,,,,,,,,,,,,,,,,,,,,,,,268.3304176999991,268.34093269999903,,268.62990379999974,268.62991749999856,268.6408132999986,268.6408132999986,268.6408132999986,270.5636790999997,l,0,1.9118573000014294,None,270.56397189999916,270.57398250000006,270.57398250000006,272.56354289999945,None,272.5741474999995,272.5741474999995,,,,,,,,,,,,,,,,,,,,,,,,,,,1,001,2024-07-27_19h50.03.246,stroop,2024.1.5,None,2024-07-27 19h50.33.749824 +0800,
color.xlsx,color_exp.xlsx,颜色,美甲师,blue,F,蓝色,,,,0,1,1,0,0,2,2,6,,,,,272.5741474999995,,,,,,,,,,,,,,,,,,,,,,,272.5638237999992,272.5741474999995,272.8756768000003,272.86371039999904,272.86372649999976,272.8756768000003,272.8756768000003,272.8756768000003,275.09748769999896,s,0,2.219138700000258,None,275.0977219999986,275.1082420999992,275.1082420999992,275.9079991999988,f,,,0.7903059999989637,None,,,,,,,,,,,,,,,,,,,,,,,,,1,001,2024-07-27_19h50.03.246,stroop,2024.1.5,None,2024-07-27 19h50.33.749824 +0800,
color.xlsx,color_exp.xlsx,颜色,机械工,pink,J,粉色,,,,0,1,1,0,0,3,3,7,,,,,275.91836519999924,,,,,,,,,,,,,,,,,,,,,,,275.9083817999999,275.91836519999924,276.2233293999998,276.20795609999914,276.20796879999943,276.2233293999998,276.2233293999998,276.2233293999998,279.5754546999997,j,0,3.3482514999996056,None,279.5758509999996,279.5857183999997,279.5857183999997,281.57446659999914,None,281.58500019999883,281.58500019999883,,,,,,,,,,,,,,,,,,,,,,,,,,,1,001,2024-07-27_19h50.03.246,stroop,2024.1.5,None,2024-07-27 19h50.33.749824 +0800,
color.xlsx,color_exp.xlsx,颜色,机械工,blue,F,蓝色,,,,0,1,1,0,0,4,4,5,,,,,281.58500019999883,,,,,,,,,,,,,,,,,,,,,,,281.5747835000002,281.58500019999883,281.89012459999867,281.8744164,281.87443429999985,281.89012459999867,281.89012459999867,281.89012459999867,283.7412859999986,f,0,1.8418805999990582,None,283.7415426999996,283.7515217,283.7515217,285.7410149999996,None,285.75144779999937,285.75144779999937,,,,,,,,,,,,,,,,,,,,,,,,,,,1,001,2024-07-27_19h50.03.246,stroop,2024.1.5,None,2024-07-27 19h50.33.749824 +0800,
color.xlsx,color_exp.xlsx,颜色,女,blue,F,蓝色,,,,0,1,1,0,0,5,5,1,,,,,285.75144779999937,,,,,,,,,,,,,,,,,,,,,,,285.74129729999913,285.75144779999937,286.05154049999874,286.0409921999999,286.04100649999964,286.05154049999874,286.05154049999874,286.05154049999874,287.7189409999992,f,0,1.6574013000008563,None,287.7191692999986,287.7292015999992,287.7292015999992,289.7189252999997,None,289.7292110999988,289.7292110999988,,,,,,,,,,,,,,,,,,,,,,,,,,,1,001,2024-07-27_19h50.03.246,stroop,2024.1.5,None,2024-07-27 19h50.33.749824 +0800,
color.xlsx,color_exp.xlsx,颜色,美甲师,purple,L,紫色,,,,0,1,1,0,0,6,6,14,,,,,289.7292110999988,,,,,,,,,,,,,,,,,,,,,,,289.71918469999946,289.7292110999988,290.02940409999974,290.0186701999992,290.01868529999956,290.02940409999974,290.02940409999974,290.02940409999974,291.1085837999999,l,0,1.0779550000006566,None,291.1088265999988,291.1181433999991,291.1181433999991,293.1073846999989,None,293.1181084,293.1181084,,,,,,,,,,,,,,,,,,,,,,,,,,,1,001,2024-07-27_19h50.03.246,stroop,2024.1.5,None,2024-07-27 19h50.33.749824 +0800,
color.xlsx,color_exp.xlsx,颜色,美甲师,blue,F,蓝色,,,,0,1,1,0,0,7,7,6,,,,,293.1181084,,,,,,,,,,,,,,,,,,,,,,,293.1076463999998,293.1181084,293.41825959999915,293.4076669999995,293.40768129999924,293.41825959999915,293.41825959999915,293.41825959999915,294.4298767,f,0,1.0013603000006697,None,294.4301698999989,294.44023539999944,294.44023539999944,296.4297895999989,None,296.4403874999989,296.4403874999989,,,,,,,,,,,,,,,,,,,,,,,,,,,1,001,2024-07-27_19h50.03.246,stroop,2024.1.5,None,2024-07-27 19h50.33.749824 +0800,
color.xlsx,color_exp.xlsx,颜色,机械工,pink,J,粉色,,,,0,1,1,0,0,8,8,7,,,,,296.4403874999989,,,,,,,,,,,,,,,,,,,,,,,296.43007690000013,296.4403874999989,296.7402327999989,296.7296037999986,296.72962109999935,296.7402327999989,296.7402327999989,296.7402327999989,298.31901409999955,j,0,1.5680843999998615,None,298.31924590000017,298.32935179999913,298.32935179999913,300.3187333999995,None,300.3290789999992,300.3290789999992,,,,,,,,,,,,,,,,,,,,,,,,,,,1,001,2024-07-27_19h50.03.246,stroop,2024.1.5,None,2024-07-27 19h50.33.749824 +0800,
color.xlsx,color_exp.xlsx,颜色,男,blue,F,蓝色,,,,0,1,1,0,0,9,9,2,,,,,300.3290789999992,,,,,,,,,,,,,,,,,,,,,,,300.31902059999993,300.3290789999992,300.62899579999976,300.6182367000001,300.618252799999,300.62899579999976,300.62899579999976,300.62899579999976,301.84198579999975,f,0,1.207861299999422,None,301.84225799999876,301.85136299999976,301.85136299999976,303.8407279999992,None,303.85119329999907,303.85119329999907,,,,,,,,,,,,,,,,,,,,,,,,,,,1,001,2024-07-27_19h50.03.246,stroop,2024.1.5,None,2024-07-27 19h50.33.749824 +0800,
color.xlsx,color_exp.xlsx,颜色,机械工,blue,F,蓝色,,,,0,1,1,0,0,10,10,5,,,,,303.85119329999907,,,,,,,,,,,,,,,,,,,,,,,303.84099739999874,303.85119329999907,304.15139459999955,304.1404074999991,304.14042059999883,304.15139459999955,304.15139459999955,304.15139459999955,305.1968904999994,f,0,1.0350911999994423,None,305.1971562999988,305.2066701999993,305.2066701999993,307.1964111999987,None,307.2068311000003,307.2068311000003,,,,,,,,,,,,,,,,,,,,,,,,,,,1,001,2024-07-27_19h50.03.246,stroop,2024.1.5,None,2024-07-27 19h50.33.749824 +0800,
color.xlsx,color_exp.xlsx,颜色,女,pink,J,粉色,,,,0,1,1,0,0,11,11,3,,,,,307.2068311000003,,,,,,,,,,,,,,,,,,,,,,,307.19668359999923,307.2068311000003,307.5069356999993,307.4964479999999,307.4964619000002,307.5069356999993,307.5069356999993,307.5069356999993,308.64104190000035,j,0,1.128623599999628,None,308.6413023999994,308.65104989999963,308.65104989999963,310.64056789999995,None,310.6512776999989,310.6512776999989,,,,,,,,,,,,,,,,,,,,,,,,,,,1,001,2024-07-27_19h50.03.246,stroop,2024.1.5,None,2024-07-27 19h50.33.749824 +0800,
color.xlsx,color_exp.xlsx,颜色,女,black,A,黑色,,,,0,1,1,0,0,12,12,9,,,,,310.6512776999989,,,,,,,,,,,,,,,,,,,,,,,310.64084170000024,310.6512776999989,310.95121779999863,310.9405423999997,310.94056979999914,310.95121779999863,310.95121779999863,310.95121779999863,312.0185571999991,a,0,1.0600632000005135,None,312.0187939999996,312.02884149999954,312.02884149999954,314.0186518999999,None,314.0288843999988,314.0288843999988,,,,,,,,,,,,,,,,,,,,,,,,,,,1,001,2024-07-27_19h50.03.246,stroop,2024.1.5,None,2024-07-27 19h50.33.749824 +0800,
color.xlsx,color_exp.xlsx,颜色,女,black,A,黑色,,,,0,1,1,0,0,13,13,9,,,,,314.0288843999988,,,,,,,,,,,,,,,,,,,,,,,314.019260699999,314.0288843999988,314.32896919999985,314.3186018999986,314.3186162000002,314.32896919999985,314.32896919999985,314.32896919999985,314.8964103999988,a,0,0.5636424999993324,None,314.896664599999,314.9066236999988,314.9066236999988,316.89611239999977,None,316.90657329999885,316.90657329999885,,,,,,,,,,,,,,,,,,,,,,,,,,,1,001,2024-07-27_19h50.03.246,stroop,2024.1.5,None,2024-07-27 19h50.33.749824 +0800,
color.xlsx,color_exp.xlsx,颜色,男,pink,J,粉色,,,,0,1,1,0,0,14,14,0,,,,,316.90657329999885,,,,,,,,,,,,,,,,,,,,,,,316.8963824000002,316.90657329999885,317.2065657999992,317.1959141999996,317.19593149999855,317.2065657999992,317.2065657999992,317.2065657999992,318.51834339999914,j,0,1.3045060000004014,None,318.5186176999996,318.52892520000023,318.52892520000023,320.5184668999991,None,320.52855519999866,320.52855519999866,,,,,,,,,,,,,,,,,,,,,,,,,,,1,001,2024-07-27_19h50.03.246,stroop,2024.1.5,None,2024-07-27 19h50.33.749824 +0800,
color.xlsx,color_exp.xlsx,颜色,美甲师,black,A,黑色,,,,0,1,1,0,0,15,15,12,,,,,320.52855519999866,,,,,,,,,,,,,,,,,,,,,,,320.5187780999986,320.52855519999866,320.82898829999976,320.8182383000003,320.8182520999999,320.82898829999976,320.82898829999976,320.82898829999976,321.5184214000001,a,0,0.6861117999997077,None,321.5186668999995,321.5286422999998,321.5286422999998,323.5180244999992,None,323.52875440000025,323.52875440000025,,,,,,,,,,,,,,,,,,,,,,,,,,,1,001,2024-07-27_19h50.03.246,stroop,2024.1.5,None,2024-07-27 19h50.33.749824 +0800,
color.xlsx,color_exp.xlsx,颜色,男,pink,J,粉色,,,,0,1,1,0,1,0,16,0,,,,,323.52875440000025,,,,,,,,,,,,,,,,,,,,,,,323.5183374999997,323.52875440000025,323.82865299999867,323.8180739999989,323.81808869999986,323.82865299999867,323.82865299999867,323.82865299999867,325.285044799999,j,0,1.450688299999456,None,325.2852740999988,325.2952652999993,325.2952652999993,327.2845469999993,None,327.2951960999999,327.2951960999999,,,,,,,,,,,,,,,,,,,,,,,,,,,1,001,2024-07-27_19h50.03.246,stroop,2024.1.5,None,2024-07-27 19h50.33.749824 +0800,
color.xlsx,color_exp.xlsx,颜色,女,blue,F,蓝色,,,,0,1,1,0,1,1,17,1,,,,,327.2951960999999,,,,,,,,,,,,,,,,,,,,,,,327.28478509999877,327.2951960999999,327.59529399999883,327.58449949999886,327.5845148999997,327.59529399999883,327.59529399999883,327.59529399999883,329.5071879999996,f,0,1.9079369999999471,None,329.507459299999,329.51732529999936,329.51732529999936,331.50688939999964,None,331.51778939999895,331.51778939999895,,,,,,,,,,,,,,,,,,,,,,,,,,,1,001,2024-07-27_19h50.03.246,stroop,2024.1.5,None,2024-07-27 19h50.33.749824 +0800,
color.xlsx,color_exp.xlsx,颜色,女,purple,L,紫色,,,,0,1,1,0,1,2,18,11,,,,,331.51778939999895,,,,,,,,,,,,,,,,,,,,,,,331.50718549999874,331.51778939999895,331.8175371999987,331.80676329999915,331.80677789999936,331.8175371999987,331.8175371999987,331.8175371999987,332.6071960999998,l,0,0.7799830999992992,None,332.60746449999897,332.6171925999988,332.6171925999988,334.6064004999989,None,334.6172695999994,334.6172695999994,,,,,,,,,,,,,,,,,,,,,,,,,,,1,001,2024-07-27_19h50.03.246,stroop,2024.1.5,None,2024-07-27 19h50.33.749824 +0800,
color.xlsx,color_exp.xlsx,颜色,机械工,black,A,黑色,,,,0,1,1,0,1,3,19,13,,,,,334.6172695999994,,,,,,,,,,,,,,,,,,,,,,,334.6067172000003,334.6172695999994,334.9174377999989,334.9068716999991,334.90688859999864,334.9174377999989,334.9174377999989,334.9174377999989,335.4631795999994,a,0,0.5419044000009308,None,335.46344169999975,335.4727605999997,335.4727605999997,337.4625268,None,337.4729901999999,337.4729901999999,,,,,,,,,,,,,,,,,,,,,,,,,,,1,001,2024-07-27_19h50.03.246,stroop,2024.1.5,None,2024-07-27 19h50.33.749824 +0800,
color.xlsx,color_exp.xlsx,颜色,男,purple,L,紫色,,,,0,1,1,0,1,4,20,10,,,,,337.4729901999999,,,,,,,,,,,,,,,,,,,,,,,337.4628445999988,337.4729901999999,337.77286529999947,337.76247949999924,337.7624995999995,337.77286529999947,337.77286529999947,337.77286529999947,339.55131269999947,l,0,1.7743876000004093,None,339.55156519999946,339.56166049999956,339.56166049999956,341.5511179999994,None,341.5614098999995,341.5614098999995,,,,,,,,,,,,,,,,,,,,,,,,,,,1,001,2024-07-27_19h50.03.246,stroop,2024.1.5,None,2024-07-27 19h50.33.749824 +0800,
color.xlsx,color_exp.xlsx,颜色,机械工,purple,L,紫色,,,,0,1,1,0,1,5,21,15,,,,,341.5614098999995,,,,,,,,,,,,,,,,,,,,,,,341.5513952000001,341.5614098999995,341.8616235999998,341.8514224999999,341.8514385999988,341.8616235999998,341.8616235999998,341.8616235999998,342.5069136000002,l,0,0.6341981000005035,None,342.5071709999993,342.5172428999995,342.5172428999995,344.506280399999,None,344.5169451999991,344.5169451999991,,,,,,,,,,,,,,,,,,,,,,,,,,,1,001,2024-07-27_19h50.03.246,stroop,2024.1.5,None,2024-07-27 19h50.33.749824 +0800,
color.xlsx,color_exp.xlsx,颜色,美甲师,black,A,黑色,,,,0,1,1,0,1,6,22,12,,,,,344.5169451999991,,,,,,,,,,,,,,,,,,,,,,,344.5065352999991,344.5169451999991,344.8171889999994,344.80634479999935,344.806360999999,344.8171889999994,344.8171889999994,344.8171889999994,345.60688180000034,a,0,0.7829953000000387,None,345.6071875999987,345.6171959000003,345.6171959000003,347.6063529000003,None,347.6171188999997,347.6171188999997,,,,,,,,,,,,,,,,,,,,,,,,,,,1,001,2024-07-27_19h50.03.246,stroop,2024.1.5,None,2024-07-27 19h50.33.749824 +0800,
color.xlsx,color_exp.xlsx,颜色,男,blue,F,蓝色,,,,0,1,1,0,1,7,23,2,,,,,347.6171188999997,,,,,,,,,,,,,,,,,,,,,,,347.6066116999991,347.6171188999997,347.91731359999903,347.90654039999936,347.9065542999997,347.91731359999903,347.91731359999903,347.91731359999903,350.61770179999985,f,0,2.689800699999978,None,350.61793749999924,350.62843040000007,350.62843040000007,352.6175604,None,352.62812909999957,352.62812909999957,,,,,,,,,,,,,,,,,,,,,,,,,,,1,001,2024-07-27_19h50.03.246,stroop,2024.1.5,None,2024-07-27 19h50.33.749824 +0800,
color.xlsx,color_exp.xlsx,颜色,男,black,A,黑色,,,,0,1,1,0,1,8,24,8,,,,,352.62812909999957,,,,,,,,,,,,,,,,,,,,,,,352.61784219999936,352.62812909999957,352.9280356999989,352.91766279999865,352.9176788999994,352.9280356999989,352.9280356999989,352.9280356999989,353.59576819999893,a,0,0.6602536999998847,None,353.5960381999994,353.6057860000001,353.6057860000001,355.5951987999997,None,355.60583439999937,355.60583439999937,,,,,,,,,,,,,,,,,,,,,,,,,,,1,001,2024-07-27_19h50.03.246,stroop,2024.1.5,None,2024-07-27 19h50.33.749824 +0800,
color.xlsx,color_exp.xlsx,颜色,男,purple,L,紫色,,,,0,1,1,0,1,9,25,10,,,,,355.60583439999937,,,,,,,,,,,,,,,,,,,,,,,355.59547999999995,355.60583439999937,355.9057094999989,355.89519850000033,355.89522169999873,355.9057094999989,355.9057094999989,355.9057094999989,356.8066476999993,l,0,0.896744800000306,None,356.8068954999999,356.81707689999894,356.81707689999894,358.80646389999856,None,358.8169144000003,358.8169144000003,,,,,,,,,,,,,,,,,,,,,,,,,,,1,001,2024-07-27_19h50.03.246,stroop,2024.1.5,None,2024-07-27 19h50.33.749824 +0800,
color.xlsx,color_exp.xlsx,颜色,美甲师,purple,L,紫色,,,,0,1,1,0,1,10,26,14,,,,,358.8169144000003,,,,,,,,,,,,,,,,,,,,,,,358.8067281000003,358.8169144000003,359.1171056000003,359.1062473000002,359.1062671999989,359.1171056000003,359.1171056000003,359.1171056000003,359.8621707000002,l,0,0.7408995999994659,None,359.86253020000004,359.8724977999991,359.8724977999991,361.8619970999989,None,361.8723506999995,361.8723506999995,,,,,,,,,,,,,,,,,,,,,,,,,,,1,001,2024-07-27_19h50.03.246,stroop,2024.1.5,None,2024-07-27 19h50.33.749824 +0800,
color.xlsx,color_exp.xlsx,颜色,美甲师,pink,J,粉色,,,,0,1,1,0,1,11,27,4,,,,,361.8723506999995,,,,,,,,,,,,,,,,,,,,,,,361.86229939999976,361.8723506999995,362.1722764999995,362.16198110000005,362.1619976999991,362.1722764999995,362.1722764999995,362.1722764999995,363.60630049999963,j,0,1.4231615000007878,None,363.60656559999916,363.6169379999992,363.6169379999992,365.6061573999996,None,365.61687809999967,365.61687809999967,,,,,,,,,,,,,,,,,,,,,,,,,,,1,001,2024-07-27_19h50.03.246,stroop,2024.1.5,None,2024-07-27 19h50.33.749824 +0800,
color.xlsx,color_exp.xlsx,颜色,机械工,black,A,黑色,,,,0,1,1,0,1,12,28,13,,,,,365.61687809999967,,,,,,,,,,,,,,,,,,,,,,,365.6064654999991,365.61687809999967,365.91695079999954,365.90600639999866,365.9060307,365.91695079999954,365.91695079999954,365.91695079999954,366.940047099999,a,0,1.018947799999296,None,366.9402934999998,366.9500995999988,366.9500995999988,368.939574,None,368.94998849999865,368.94998849999865,,,,,,,,,,,,,,,,,,,,,,,,,,,1,001,2024-07-27_19h50.03.246,stroop,2024.1.5,None,2024-07-27 19h50.33.749824 +0800,
color.xlsx,color_exp.xlsx,颜色,女,pink,J,粉色,,,,0,1,1,0,1,13,29,3,,,,,368.94998849999865,,,,,,,,,,,,,,,,,,,,,,,368.9398261999995,368.94998849999865,369.249975499999,369.23939979999886,369.23941489999925,369.249975499999,369.249975499999,369.249975499999,370.51745669999946,j,0,1.2599775999988196,None,370.51772059999894,370.5278636000003,370.5278636000003,372.5172722999996,None,372.52782769999976,372.52782769999976,,,,,,,,,,,,,,,,,,,,,,,,,,,1,001,2024-07-27_19h50.03.246,stroop,2024.1.5,None,2024-07-27 19h50.33.749824 +0800,
color.xlsx,color_exp.xlsx,颜色,美甲师,pink,J,粉色,,,,0,1,1,0,1,14,30,4,,,,,372.52782769999976,,,,,,,,,,,,,,,,,,,,,,,372.51754919999985,372.52782769999976,372.82776939999894,372.8176218999997,372.8176347999997,372.82776939999894,372.82776939999894,372.82776939999894,373.3287150999986,j,0,0.4935750000004191,None,373.3289728999989,373.3388653000002,373.3388653000002,375.3284076,None,375.3389575000001,375.3389575000001,,,,,,,,,,,,,,,,,,,,,,,,,,,1,001,2024-07-27_19h50.03.246,stroop,2024.1.5,None,2024-07-27 19h50.33.749824 +0800,
color.xlsx,color_exp.xlsx,颜色,机械工,purple,L,紫色,,,,0,1,1,0,1,15,31,15,,,,,375.3389575000001,,,,,,,,,,,,,,,,,,,,,,,375.3287492999989,375.3389575000001,375.63882659999945,375.62794589999976,375.62795899999946,375.63882659999945,375.63882659999945,375.63882659999945,376.7951644999994,l,0,1.1497825000005832,None,376.795428899999,376.80519939999976,376.80519939999976,378.79498369999965,None,378.8149677000001,378.8149677000001,,,,,,,,,,,,,,,,,,,,,,,,,,,1,001,2024-07-27_19h50.03.246,stroop,2024.1.5,None,2024-07-27 19h50.33.749824 +0800,
color.xlsx,color_exp.xlsx,颜色,,,,,女程序员,purple,l,0,1,1,0,,,,,0,0,0,75,380.5345202999997,,,,,,,,,,,,,,,,,,,,,,,380.5294170999987,380.5345202999997,,380.82833989999926,,,,,,,,,,,,,,,,,,,378.7952061999986,378.8149677000001,378.8149677000001,380.5175782999995,space,1.6966690999997809,None,380.82835799999884,380.84011009999995,380.84011009999995,381.88402959999985,l,1,1.0408443999986048,None,,,,,,,,,,1,001,2024-07-27_19h50.03.246,stroop,2024.1.5,None,2024-07-27 19h50.33.749824 +0800,
color.xlsx,color_exp.xlsx,颜色,,,,,男,blue,f,0,1,1,0,,,,,0,1,1,20,381.89396250000027,,,,,,,,,,,,,,,,,,,,,,,381.8845129000001,381.89396250000027,382.1942044999996,382.1833097999988,,,,,,,,,,,,,,,,,,,,,,,,,,382.1833244999998,382.1942044999996,382.1942044999996,383.0948013999987,a,0,0.8917646999998396,None,,,,,,,,,,1,001,2024-07-27_19h50.03.246,stroop,2024.1.5,None,2024-07-27 19h50.33.749824 +0800,
color.xlsx,color_exp.xlsx,颜色,,,,,女护士,purple,l,0,1,1,0,,,,,0,2,2,77,383.1053783999996,,,,,,,,,,,,,,,,,,,,,,,383.0951557999997,383.1053783999996,383.4051227,383.39482940000016,,,,,,,,,,,,,,,,,,,,,,,,,,383.3948454000001,383.4051227,383.4051227,384.33987949999937,l,1,0.9292022000008728,None,,,,,,,,,,1,001,2024-07-27_19h50.03.246,stroop,2024.1.5,None,2024-07-27 19h50.33.749824 +0800,
color.xlsx,color_exp.xlsx,颜色,,,,,女警察,purple,l,0,1,1,0,,,,,0,3,3,79,384.34968169999956,,,,,,,,,,,,,,,,,,,,,,,384.3402651999986,384.34968169999956,384.6497409000003,384.6389057999986,,,,,,,,,,,,,,,,,,,,,,,,,,384.63891909999984,384.6497409000003,384.6497409000003,385.25025129999995,l,1,0.5930764999993698,None,,,,,,,,,,1,001,2024-07-27_19h50.03.246,stroop,2024.1.5,None,2024-07-27 19h50.33.749824 +0800,
color.xlsx,color_exp.xlsx,颜色,,,,,老师,pink,j,0,1,1,0,,,,,0,4,4,45,385.2607919999991,,,,,,,,,,,,,,,,,,,,,,,385.2505818999998,385.2607919999991,385.5608209000002,385.55015979999916,,,,,,,,,,,,,,,,,,,,,,,,,,385.5501738999992,385.5608209000002,385.5608209000002,386.4393244999992,j,1,0.8722612000001391,None,,,,,,,,,,1,001,2024-07-27_19h50.03.246,stroop,2024.1.5,None,2024-07-27 19h50.33.749824 +0800,
color.xlsx,color_exp.xlsx,颜色,,,,,女程序员,black,a,0,1,1,0,,,,,0,5,5,15,386.4495104999987,,,,,,,,,,,,,,,,,,,,,,,386.43968080000013,386.4495104999987,386.7498255999999,386.7391195,,,,,,,,,,,,,,,,,,,,,,,,,,386.73913489999904,386.7498255999999,386.7498255999999,387.58370959999957,a,1,0.8240967000001547,None,,,,,,,,,,1,001,2024-07-27_19h50.03.246,stroop,2024.1.5,None,2024-07-27 19h50.33.749824 +0800,
color.xlsx,color_exp.xlsx,颜色,,,,,男程序员,black,a,0,1,1,0,,,,,0,6,6,10,387.5938537999991,,,,,,,,,,,,,,,,,,,,,,,387.58402699999897,387.5938537999991,387.8940069,387.88319169999886,,,,,,,,,,,,,,,,,,,,,,,,,,387.8832067000003,387.8940069,387.8940069,388.4283507,a,1,0.5273307000006753,None,,,,,,,,,,1,001,2024-07-27_19h50.03.246,stroop,2024.1.5,None,2024-07-27 19h50.33.749824 +0800,
color.xlsx,color_exp.xlsx,颜色,,,,,女保姆,black,a,0,1,1,0,,,,,0,7,7,18,388.43831879999925,,,,,,,,,,,,,,,,,,,,,,,388.4287637999987,388.43831879999925,388.73936349999894,388.7278905000003,,,,,,,,,,,,,,,,,,,,,,,,,,388.72790480000003,388.73936349999894,388.73936349999894,389.139529099999,a,1,0.3899488000006386,None,,,,,,,,,,1,001,2024-07-27_19h50.03.246,stroop,2024.1.5,None,2024-07-27 19h50.33.749824 +0800,
color.xlsx,color_exp.xlsx,颜色,,,,,警察,black,a,0,1,1,0,,,,,0,8,8,2,389.1496670999986,,,,,,,,,,,,,,,,,,,,,,,389.13987369999995,389.1496670999986,389.4496750999988,389.4390261999997,,,,,,,,,,,,,,,,,,,,,,,,,,389.4390532999987,389.4496750999988,389.4496750999988,389.82811500000025,a,1,0.3719223999996757,None,,,,,,,,,,1,001,2024-07-27_19h50.03.246,stroop,2024.1.5,None,2024-07-27 19h50.33.749824 +0800,
color.xlsx,color_exp.xlsx,颜色,,,,,男护士,purple,l,0,1,1,0,,,,,0,9,9,72,389.83845089999886,,,,,,,,,,,,,,,,,,,,,,,389.82846210000025,389.83845089999886,390.1385449999998,390.12780419999945,,,,,,,,,,,,,,,,,,,,,,,,,,390.12781949999953,390.1385449999998,390.1385449999998,390.828384299999,f,0,0.6807368000008864,None,,,,,,,,,,1,001,2024-07-27_19h50.03.246,stroop,2024.1.5,None,2024-07-27 19h50.33.749824 +0800,
color.xlsx,color_exp.xlsx,颜色,,,,,警察,pink,j,0,1,1,0,,,,,0,10,10,42,390.8386512999987,,,,,,,,,,,,,,,,,,,,,,,390.82875989999957,390.8386512999987,391.13843859999906,391.12743839999894,,,,,,,,,,,,,,,,,,,,,,,,,,391.12745240000004,391.13843859999906,391.13843859999906,391.85079179999957,f,0,0.7066119999999501,None,,,,,,,,,,1,001,2024-07-27_19h50.03.246,stroop,2024.1.5,None,2024-07-27 19h50.33.749824 +0800,
color.xlsx,color_exp.xlsx,颜色,,,,,男保姆,pink,j,0,1,1,0,,,,,0,11,11,53,391.860744399999,,,,,,,,,,,,,,,,,,,,,,,391.85119789999953,391.860744399999,392.1604934999996,392.1497997999995,,,,,,,,,,,,,,,,,,,,,,,,,,392.1498135999991,392.1604934999996,392.1604934999996,393.5727829999996,j,1,1.410600400000476,None,,,,,,,,,,1,001,2024-07-27_19h50.03.246,stroop,2024.1.5,None,2024-07-27 19h50.33.749824 +0800,
color.xlsx,color_exp.xlsx,颜色,,,,,保姆,black,a,0,1,1,0,,,,,0,12,12,7,393.5828182999994,,,,,,,,,,,,,,,,,,,,,,,393.57315389999894,393.5828182999994,393.8829389000002,393.87230479999926,,,,,,,,,,,,,,,,,,,,,,,,,,393.8723214999991,393.8829389000002,393.8829389000002,394.8278083999994,a,1,0.93943070000023,None,,,,,,,,,,1,001,2024-07-27_19h50.03.246,stroop,2024.1.5,None,2024-07-27 19h50.33.749824 +0800,
color.xlsx,color_exp.xlsx,颜色,,,,,护士,black,a,0,1,1,0,,,,,0,13,13,6,394.8382994000003,,,,,,,,,,,,,,,,,,,,,,,394.8281807000003,394.8382994000003,395.13818439999886,395.1276177999989,,,,,,,,,,,,,,,,,,,,,,,,,,395.12762929999917,395.13818439999886,395.13818439999886,397.1277164999992,None,0,,,397.1383979000002,397.1383979000002,,,,,,,,1,001,2024-07-27_19h50.03.246,stroop,2024.1.5,None,2024-07-27 19h50.33.749824 +0800,
color.xlsx,color_exp.xlsx,颜色,,,,,保姆,pink,j,0,1,1,0,,,,,0,14,14,47,397.1383979000002,,,,,,,,,,,,,,,,,,,,,,,397.12802139999985,397.1383979000002,397.4381149000001,397.4276754000002,,,,,,,,,,,,,,,,,,,,,,,,,,397.4276926000002,397.4381149000001,397.4381149000001,399.42767470000035,None,0,,,399.438192399999,399.438192399999,,,,,,,,1,001,2024-07-27_19h50.03.246,stroop,2024.1.5,None,2024-07-27 19h50.33.749824 +0800,
color.xlsx,color_exp.xlsx,颜色,,,,,男领导,blue,f,0,1,1,0,,,,,0,15,15,29,399.438192399999,,,,,,,,,,,,,,,,,,,,,,,399.42796069999895,399.438192399999,399.7383437999997,399.72761869999886,,,,,,,,,,,,,,,,,,,,,,,,,,399.7276294000003,399.7383437999997,399.7383437999997,400.92790219999915,a,0,1.1805559000003996,None,,,,,,,,,,1,001,2024-07-27_19h50.03.246,stroop,2024.1.5,None,2024-07-27 19h50.33.749824 +0800,
color.xlsx,color_exp.xlsx,颜色,,,,,男领导,purple,l,0,1,1,0,,,,,0,16,16,69,400.93833859999904,,,,,,,,,,,,,,,,,,,,,,,400.9282059999987,400.93833859999904,401.23875769999904,401.22767609999937,,,,,,,,,,,,,,,,,,,,,,,,,,401.22769209999933,401.23875769999904,401.23875769999904,403.22785699999986,None,0,,,403.23815899999863,403.23815899999863,,,,,,,,1,001,2024-07-27_19h50.03.246,stroop,2024.1.5,None,2024-07-27 19h50.33.749824 +0800,
color.xlsx,color_exp.xlsx,颜色,,,,,女领导,purple,l,0,1,1,0,,,,,0,17,17,74,403.23815899999863,,,,,,,,,,,,,,,,,,,,,,,403.2281645000003,403.23815899999863,403.5381018999997,403.5274238999991,,,,,,,,,,,,,,,,,,,,,,,,,,403.5274403000003,403.5381018999997,403.5381018999997,404.1168765000002,l,1,0.5760056999988592,None,,,,,,,,,,1,001,2024-07-27_19h50.03.246,stroop,2024.1.5,None,2024-07-27 19h50.33.749824 +0800,
color.xlsx,color_exp.xlsx,颜色,,,,,女,black,a,0,1,1,0,,,,,0,18,18,1,404.12740490000033,,,,,,,,,,,,,,,,,,,,,,,404.11730139999963,404.12740490000033,404.42716180000025,404.41605659999914,,,,,,,,,,,,,,,,,,,,,,,,,,404.4160695999999,404.42716180000025,404.42716180000025,406.05010819999916,a,1,1.6191734000003635,None,,,,,,,,,,1,001,2024-07-27_19h50.03.246,stroop,2024.1.5,None,2024-07-27 19h50.33.749824 +0800,
color.xlsx,color_exp.xlsx,颜色,,,,,男警察,pink,j,0,1,1,0,,,,,0,19,19,48,406.0604174,,,,,,,,,,,,,,,,,,,,,,,406.05045119999886,406.0604174,406.3604041999988,406.3497185999986,,,,,,,,,,,,,,,,,,,,,,,,,,406.34973309999987,406.3604041999988,406.3604041999988,407.7391322000003,j,1,1.3679465999994136,None,,,,,,,,,,1,001,2024-07-27_19h50.03.246,stroop,2024.1.5,None,2024-07-27 19h50.33.749824 +0800,
color.xlsx,color_exp.xlsx,颜色,,,,,领导,blue,f,0,1,1,0,,,,,0,20,20,23,407.74942310000006,,,,,,,,,,,,,,,,,,,,,,,407.7399413999992,407.74942310000006,408.04983619999985,408.03880339999887,,,,,,,,,,,,,,,,,,,,,,,,,,408.03882669999985,408.04983619999985,408.04983619999985,409.08336210000016,f,1,1.0294747999996616,None,,,,,,,,,,1,001,2024-07-27_19h50.03.246,stroop,2024.1.5,None,2024-07-27 19h50.33.749824 +0800,
color.xlsx,color_exp.xlsx,颜色,,,,,男保姆,black,a,0,1,1,0,,,,,0,21,21,13,409.0936786000002,,,,,,,,,,,,,,,,,,,,,,,409.0836755,409.0936786000002,409.39385310000034,409.38295649999964,,,,,,,,,,,,,,,,,,,,,,,,,,409.38296999999875,409.39385310000034,409.39385310000034,410.61650290000034,a,1,1.2113276000000042,None,,,,,,,,,,1,001,2024-07-27_19h50.03.246,stroop,2024.1.5,None,2024-07-27 19h50.33.749824 +0800,
color.xlsx,color_exp.xlsx,颜色,,,,,男程序员,blue,f,0,1,1,0,,,,,0,22,22,30,410.6270136000003,,,,,,,,,,,,,,,,,,,,,,,410.616791299999,410.6270136000003,410.92705000000024,410.91632089999985,,,,,,,,,,,,,,,,,,,,,,,,,,410.91633509999883,410.92705000000024,410.92705000000024,412.916100299999,None,0,,,412.92670329999964,412.92670329999964,,,,,,,,1,001,2024-07-27_19h50.03.246,stroop,2024.1.5,None,2024-07-27 19h50.33.749824 +0800,
color.xlsx,color_exp.xlsx,颜色,,,,,领导,pink,j,0,1,1,0,,,,,0,23,23,43,412.92670329999964,,,,,,,,,,,,,,,,,,,,,,,412.9164330000003,412.92670329999964,413.22715249999965,413.2162886999995,,,,,,,,,,,,,,,,,,,,,,,,,,413.21630749999895,413.22715249999965,413.22715249999965,414.9160749999992,l,0,1.6865862999984529,None,,,,,,,,,,1,001,2024-07-27_19h50.03.246,stroop,2024.1.5,None,2024-07-27 19h50.33.749824 +0800,
color.xlsx,color_exp.xlsx,颜色,,,,,女程序员,pink,j,0,1,1,0,,,,,0,24,24,55,414.9266540999997,,,,,,,,,,,,,,,,,,,,,,,414.9164695999989,414.9266540999997,415.2266577999999,415.2161139,,,,,,,,,,,,,,,,,,,,,,,,,,415.2161269999997,415.2266577999999,415.2266577999999,415.86083529999996,l,0,0.6274209000002884,None,,,,,,,,,,1,001,2024-07-27_19h50.03.246,stroop,2024.1.5,None,2024-07-27 19h50.33.749824 +0800,
color.xlsx,color_exp.xlsx,颜色,,,,,老师,black,a,0,1,1,0,,,,,0,25,25,5,415.87112519999937,,,,,,,,,,,,,,,,,,,,,,,415.861279499999,415.87112519999937,416.1711101000001,416.1606800999998,,,,,,,,,,,,,,,,,,,,,,,,,,416.16069459999926,416.1711101000001,416.1711101000001,418.16058059999887,None,0,,,418.17109439999876,418.17109439999876,,,,,,,,1,001,2024-07-27_19h50.03.246,stroop,2024.1.5,None,2024-07-27 19h50.33.749824 +0800,
color.xlsx,color_exp.xlsx,颜色,,,,,男领导,pink,j,0,1,1,0,,,,,0,26,26,49,418.17109439999876,,,,,,,,,,,,,,,,,,,,,,,418.16090409999924,418.17109439999876,418.471141,418.46041609999884,,,,,,,,,,,,,,,,,,,,,,,,,,418.46043329999884,418.471141,418.471141,420.4603251999997,None,0,,,420.4709948999989,420.4709948999989,,,,,,,,1,001,2024-07-27_19h50.03.246,stroop,2024.1.5,None,2024-07-27 19h50.33.749824 +0800,
color.xlsx,color_exp.xlsx,颜色,,,,,警察,purple,l,0,1,1,0,,,,,0,27,27,62,420.4709948999989,,,,,,,,,,,,,,,,,,,,,,,420.4606277999992,420.4709948999989,420.7710860999996,420.76055149999956,,,,,,,,,,,,,,,,,,,,,,,,,,420.76056719999906,420.7710860999996,420.7710860999996,421.4938805999991,l,1,0.7185021000004781,None,,,,,,,,,,1,001,2024-07-27_19h50.03.246,stroop,2024.1.5,None,2024-07-27 19h50.33.749824 +0800,
color.xlsx,color_exp.xlsx,颜色,,,,,男,black,a,0,1,1,0,,,,,0,28,28,0,421.50424609999936,,,,,,,,,,,,,,,,,,,,,,,421.494546599999,421.50424609999936,421.80429619999995,421.79370559999916,,,,,,,,,,,,,,,,,,,,,,,,,,421.79371919999903,421.80429619999995,421.80429619999995,422.58354919999874,a,1,0.7727075000002515,None,,,,,,,,,,1,001,2024-07-27_19h50.03.246,stroop,2024.1.5,None,2024-07-27 19h50.33.749824 +0800,
color.xlsx,color_exp.xlsx,颜色,,,,,男保姆,blue,f,0,1,1,0,,,,,0,29,29,33,422.59332639999957,,,,,,,,,,,,,,,,,,,,,,,422.5839092999995,422.59332639999957,422.8933997999993,422.88270379999994,,,,,,,,,,,,,,,,,,,,,,,,,,422.88271929999974,422.8933997999993,422.8933997999993,424.3049874999997,f,1,1.4083743000010145,None,,,,,,,,,,1,001,2024-07-27_19h50.03.246,stroop,2024.1.5,None,2024-07-27 19h50.33.749824 +0800,
color.xlsx,color_exp.xlsx,颜色,,,,,老师,purple,l,0,1,1,0,,,,,0,30,30,65,424.31535019999865,,,,,,,,,,,,,,,,,,,,,,,424.3054667999986,424.31535019999865,424.61537039999894,424.60480989999996,,,,,,,,,,,,,,,,,,,,,,,,,,424.6048247999988,424.61537039999894,424.61537039999894,425.99416999999994,l,1,1.3722217999984423,None,,,,,,,,,,1,001,2024-07-27_19h50.03.246,stroop,2024.1.5,None,2024-07-27 19h50.33.749824 +0800,
color.xlsx,color_exp.xlsx,颜色,,,,,护士,purple,l,0,1,1,0,,,,,0,31,31,66,426.0042271000002,,,,,,,,,,,,,,,,,,,,,,,425.9944894,426.0042271000002,426.3042446999989,426.293671899999,,,,,,,,,,,,,,,,,,,,,,,,,,426.2936864000003,426.3042446999989,426.3042446999989,427.00574679999954,l,1,0.6967702999991161,None,,,,,,,,,,1,001,2024-07-27_19h50.03.246,stroop,2024.1.5,None,2024-07-27 19h50.33.749824 +0800,
color.xlsx,color_exp.xlsx,颜色,,,,,女护士,blue,f,0,1,1,0,,,,,0,32,32,37,427.01537610000014,,,,,,,,,,,,,,,,,,,,,,,427.00608549999924,427.01537610000014,427.3153934999991,427.30497809999906,,,,,,,,,,,,,,,,,,,,,,,,,,427.30499249999957,427.3153934999991,427.3153934999991,428.04920049999964,f,1,0.7224558999987494,None,,,,,,,,,,1,001,2024-07-27_19h50.03.246,stroop,2024.1.5,None,2024-07-27 19h50.33.749824 +0800,
color.xlsx,color_exp.xlsx,颜色,,,,,程序员,pink,j,0,1,1,0,,,,,0,33,33,44,428.0598210999997,,,,,,,,,,,,,,,,,,,,,,,428.0495087999989,428.0598210999997,428.35992350000015,428.3489522999989,,,,,,,,,,,,,,,,,,,,,,,,,,428.34896800000024,428.35992350000015,428.35992350000015,429.2720798999999,j,1,0.905118599999696,None,,,,,,,,,,1,001,2024-07-27_19h50.03.246,stroop,2024.1.5,None,2024-07-27 19h50.33.749824 +0800,
color.xlsx,color_exp.xlsx,颜色,,,,,男警察,black,a,0,1,1,0,,,,,0,34,34,8,429.28233329999966,,,,,,,,,,,,,,,,,,,,,,,429.27241499999946,429.28233329999966,429.58237199999894,429.5712722999997,,,,,,,,,,,,,,,,,,,,,,,,,,429.57129319999876,429.58237199999894,429.58237199999894,430.3165491,a,1,0.7314851999999519,None,,,,,,,,,,1,001,2024-07-27_19h50.03.246,stroop,2024.1.5,None,2024-07-27 19h50.33.749824 +0800,
color.xlsx,color_exp.xlsx,颜色,,,,,老师,blue,f,0,1,1,0,,,,,0,35,35,25,430.3263518999993,,,,,,,,,,,,,,,,,,,,,,,430.31691429999955,430.3263518999993,430.6265982999994,430.6156324000003,,,,,,,,,,,,,,,,,,,,,,,,,,430.6156463999996,430.6265982999994,430.6265982999994,431.9273076999998,l,0,1.2965084000006755,None,,,,,,,,,,1,001,2024-07-27_19h50.03.246,stroop,2024.1.5,None,2024-07-27 19h50.33.749824 +0800,
color.xlsx,color_exp.xlsx,颜色,,,,,程序员,black,a,0,1,1,0,,,,,0,36,36,4,431.9376218999987,,,,,,,,,,,,,,,,,,,,,,,431.92764349999925,431.9376218999987,432.2376198999991,432.2269527999997,,,,,,,,,,,,,,,,,,,,,,,,,,432.22696769999857,432.2376198999991,432.2376198999991,433.527536399999,a,1,1.2829959999999119,None,,,,,,,,,,1,001,2024-07-27_19h50.03.246,stroop,2024.1.5,None,2024-07-27 19h50.33.749824 +0800,
color.xlsx,color_exp.xlsx,颜色,,,,,护士,blue,f,0,1,1,0,,,,,0,37,37,26,433.5374120999986,,,,,,,,,,,,,,,,,,,,,,,433.5279351999998,433.5374120999986,433.8374315000001,433.82723110000006,,,,,,,,,,,,,,,,,,,,,,,,,,433.8272479999996,433.8374315000001,433.8374315000001,434.5048556999991,f,1,0.662385899999208,None,,,,,,,,,,1,001,2024-07-27_19h50.03.246,stroop,2024.1.5,None,2024-07-27 19h50.33.749824 +0800,
color.xlsx,color_exp.xlsx,颜色,,,,,保姆,blue,f,0,1,1,0,,,,,0,38,38,27,434.5152871999999,,,,,,,,,,,,,,,,,,,,,,,434.5051857999988,434.5152871999999,434.8152492999998,434.80441710000014,,,,,,,,,,,,,,,,,,,,,,,,,,434.8044312999991,434.8152492999998,434.8152492999998,436.4716368999998,f,1,1.6530390999996598,None,,,,,,,,,,1,001,2024-07-27_19h50.03.246,stroop,2024.1.5,None,2024-07-27 19h50.33.749824 +0800,
color.xlsx,color_exp.xlsx,颜色,,,,,女保姆,pink,j,0,1,1,0,,,,,0,39,39,58,436.4819384000002,,,,,,,,,,,,,,,,,,,,,,,436.4720398999998,436.4819384000002,436.7820350000002,436.77123349999965,,,,,,,,,,,,,,,,,,,,,,,,,,436.77124919999915,436.7820350000002,436.7820350000002,438.77129179999974,None,0,,,438.7818563000001,438.7818563000001,,,,,,,,1,001,2024-07-27_19h50.03.246,stroop,2024.1.5,None,2024-07-27 19h50.33.749824 +0800,
color.xlsx,color_exp.xlsx,颜色,,,,,女老师,blue,f,0,1,1,0,,,,,0,40,40,36,438.7818563000001,,,,,,,,,,,,,,,,,,,,,,,438.7717670999991,438.7818563000001,439.0819193999996,439.0712728999988,,,,,,,,,,,,,,,,,,,,,,,,,,439.0712875999998,439.0819193999996,439.0819193999996,440.0723601999998,f,1,0.9807337000002008,None,,,,,,,,,,1,001,2024-07-27_19h50.03.246,stroop,2024.1.5,None,2024-07-27 19h50.33.749824 +0800,
color.xlsx,color_exp.xlsx,颜色,,,,,女老师,pink,j,0,1,1,0,,,,,0,41,41,56,440.0817771000002,,,,,,,,,,,,,,,,,,,,,,,440.0727246999995,440.0817771000002,440.38200789999973,440.37138929999855,,,,,,,,,,,,,,,,,,,,,,,,,,440.37140419999923,440.38200789999973,440.38200789999973,442.0490785999991,j,1,1.6559577000007266,None,,,,,,,,,,1,001,2024-07-27_19h50.03.246,stroop,2024.1.5,None,2024-07-27 19h50.33.749824 +0800,
color.xlsx,color_exp.xlsx,颜色,,,,,男警察,purple,l,0,1,1,0,,,,,0,42,42,68,442.0599843,,,,,,,,,,,,,,,,,,,,,,,442.0495546000002,442.0599843,442.3595691999999,442.34895940000024,,,,,,,,,,,,,,,,,,,,,,,,,,442.3489740999994,442.3595691999999,442.3595691999999,444.14913499999966,l,1,1.783962800000154,None,,,,,,,,,,1,001,2024-07-27_19h50.03.246,stroop,2024.1.5,None,2024-07-27 19h50.33.749824 +0800,
color.xlsx,color_exp.xlsx,颜色,,,,,女程序员,blue,f,0,1,1,0,,,,,0,43,43,35,444.1593839999987,,,,,,,,,,,,,,,,,,,,,,,444.1494772999995,444.1593839999987,444.4595795999994,444.448887999999,,,,,,,,,,,,,,,,,,,,,,,,,,444.44890269999996,444.4595795999994,444.4595795999994,445.8826458000003,f,1,1.4160296999998536,None,,,,,,,,,,1,001,2024-07-27_19h50.03.246,stroop,2024.1.5,None,2024-07-27 19h50.33.749824 +0800,
color.xlsx,color_exp.xlsx,颜色,,,,,男老师,blue,f,0,1,1,0,,,,,0,44,44,31,445.8928285000002,,,,,,,,,,,,,,,,,,,,,,,445.8829537999991,445.8928285000002,446.1927966000003,446.1822892,,,,,,,,,,,,,,,,,,,,,,,,,,446.1823062000003,446.1927966000003,446.1927966000003,446.74954439999965,f,1,0.5507020999993983,None,,,,,,,,,,1,001,2024-07-27_19h50.03.246,stroop,2024.1.5,None,2024-07-27 19h50.33.749824 +0800,
color.xlsx,color_exp.xlsx,颜色,,,,,男护士,blue,f,0,1,1,0,,,,,0,45,45,32,446.7594137999986,,,,,,,,,,,,,,,,,,,,,,,446.74990249999973,446.7594137999986,447.05957639999906,447.04893959999936,,,,,,,,,,,,,,,,,,,,,,,,,,447.0489560999995,447.05957639999906,447.05957639999906,447.59355329999926,f,1,0.5242944999990868,None,,,,,,,,,,1,001,2024-07-27_19h50.03.246,stroop,2024.1.5,None,2024-07-27 19h50.33.749824 +0800,
color.xlsx,color_exp.xlsx,颜色,,,,,女老师,black,a,0,1,1,0,,,,,0,46,46,16,447.6037977999986,,,,,,,,,,,,,,,,,,,,,,,447.59384899999895,447.6037977999986,447.90405519999877,447.893467599999,,,,,,,,,,,,,,,,,,,,,,,,,,447.89348619999873,447.90405519999877,447.90405519999877,448.7824166999999,a,1,0.8763517000006686,None,,,,,,,,,,1,001,2024-07-27_19h50.03.246,stroop,2024.1.5,None,2024-07-27 19h50.33.749824 +0800,
color.xlsx,color_exp.xlsx,颜色,,,,,女,purple,l,0,1,1,0,,,,,0,47,47,61,448.79269529999874,,,,,,,,,,,,,,,,,,,,,,,448.7827271999995,448.79269529999874,449.09267629999886,449.08222319999913,,,,,,,,,,,,,,,,,,,,,,,,,,449.08223739999994,449.09267629999886,449.09267629999886,450.5160367999997,l,1,1.4202917999991769,None,,,,,,,,,,1,001,2024-07-27_19h50.03.246,stroop,2024.1.5,None,2024-07-27 19h50.33.749824 +0800,
color.xlsx,color_exp.xlsx,颜色,,,,,男程序员,pink,j,0,1,1,0,,,,,0,48,48,50,450.5261111,,,,,,,,,,,,,,,,,,,,,,,450.51640289999887,450.5261111,450.8260274999993,450.8157375999999,,,,,,,,,,,,,,,,,,,,,,,,,,450.81575410000005,450.8260274999993,450.8260274999993,452.67112459999953,j,1,1.837596700001086,None,,,,,,,,,,1,001,2024-07-27_19h50.03.246,stroop,2024.1.5,None,2024-07-27 19h50.33.749824 +0800,
color.xlsx,color_exp.xlsx,颜色,,,,,女警察,pink,j,0,1,1,0,,,,,0,49,49,59,452.68166089999977,,,,,,,,,,,,,,,,,,,,,,,452.671429,452.68166089999977,452.9816422999993,452.97086449999915,,,,,,,,,,,,,,,,,,,,,,,,,,452.97088189999886,452.9816422999993,452.9816422999993,453.66116200000033,j,1,0.6720628000002762,None,,,,,,,,,,1,001,2024-07-27_19h50.03.246,stroop,2024.1.5,None,2024-07-27 19h50.33.749824 +0800,
color.xlsx,color_exp.xlsx,颜色,,,,,女老师,purple,l,0,1,1,0,,,,,0,50,50,76,453.6703808000002,,,,,,,,,,,,,,,,,,,,,,,453.6616979999999,453.6703808000002,453.97064239999963,453.95987439999953,,,,,,,,,,,,,,,,,,,,,,,,,,453.95989109999937,453.97064239999963,453.97064239999963,455.9596511999989,None,0,,,455.9704084999994,455.9704084999994,,,,,,,,1,001,2024-07-27_19h50.03.246,stroop,2024.1.5,None,2024-07-27 19h50.33.749824 +0800,
color.xlsx,color_exp.xlsx,颜色,,,,,男老师,pink,j,0,1,1,0,,,,,0,51,51,51,455.9704084999994,,,,,,,,,,,,,,,,,,,,,,,455.9599194000002,455.9704084999994,456.2705389999992,456.2599154999989,,,,,,,,,,,,,,,,,,,,,,,,,,456.25992659999974,456.2705389999992,456.2705389999992,457.22635999999875,j,1,0.9512216000002809,None,,,,,,,,,,1,001,2024-07-27_19h50.03.246,stroop,2024.1.5,None,2024-07-27 19h50.33.749824 +0800,
color.xlsx,color_exp.xlsx,颜色,,,,,男老师,purple,l,0,1,1,0,,,,,0,52,52,71,457.2370439999995,,,,,,,,,,,,,,,,,,,,,,,457.22671699999955,457.2370439999995,457.5370678999989,457.52638579999984,,,,,,,,,,,,,,,,,,,,,,,,,,457.5264002999993,457.5370678999989,457.5370678999989,458.70445649999965,l,1,1.163468799999464,None,,,,,,,,,,1,001,2024-07-27_19h50.03.246,stroop,2024.1.5,None,2024-07-27 19h50.33.749824 +0800,
color.xlsx,color_exp.xlsx,颜色,,,,,男,purple,l,0,1,1,0,,,,,0,53,53,60,458.71497249999993,,,,,,,,,,,,,,,,,,,,,,,458.7048111999993,458.71497249999993,459.0150543,459.00428999999895,,,,,,,,,,,,,,,,,,,,,,,,,,459.0043100999992,459.0150543,459.0150543,459.60467549999885,l,1,0.5829706999993505,None,,,,,,,,,,1,001,2024-07-27_19h50.03.246,stroop,2024.1.5,None,2024-07-27 19h50.33.749824 +0800,
color.xlsx,color_exp.xlsx,颜色,,,,,女保姆,blue,f,0,1,1,0,,,,,0,54,54,38,459.6147568999986,,,,,,,,,,,,,,,,,,,,,,,459.6050113000001,459.6147568999986,459.9147839999987,459.9043024999992,,,,,,,,,,,,,,,,,,,,,,,,,,459.9043185999999,459.9147839999987,459.9147839999987,461.20470939999905,f,1,1.27924239999993,None,,,,,,,,,,1,001,2024-07-27_19h50.03.246,stroop,2024.1.5,None,2024-07-27 19h50.33.749824 +0800,
color.xlsx,color_exp.xlsx,颜色,,,,,女,blue,f,0,1,1,0,,,,,0,55,55,21,461.21474789999957,,,,,,,,,,,,,,,,,,,,,,,461.20508189999964,461.21474789999957,461.51483609999923,461.50421189999906,,,,,,,,,,,,,,,,,,,,,,,,,,461.50422479999906,461.51483609999923,461.51483609999923,461.9486734000002,f,1,0.43175999999948544,None,,,,,,,,,,1,001,2024-07-27_19h50.03.246,stroop,2024.1.5,None,2024-07-27 19h50.33.749824 +0800,
color.xlsx,color_exp.xlsx,颜色,,,,,男领导,black,a,0,1,1,0,,,,,0,56,56,9,461.959143099999,,,,,,,,,,,,,,,,,,,,,,,461.9490406999994,461.959143099999,462.2592356999994,462.24832239999887,,,,,,,,,,,,,,,,,,,,,,,,,,462.24833359999866,462.2592356999994,462.2592356999994,462.84890369999994,a,1,0.5834058000000368,None,,,,,,,,,,1,001,2024-07-27_19h50.03.246,stroop,2024.1.5,None,2024-07-27 19h50.33.749824 +0800,
color.xlsx,color_exp.xlsx,颜色,,,,,警察,blue,f,0,1,1,0,,,,,0,57,57,22,462.8590669999994,,,,,,,,,,,,,,,,,,,,,,,462.8492417999987,462.8590669999994,463.1591477000002,463.1485163999987,,,,,,,,,,,,,,,,,,,,,,,,,,463.1485417999993,463.1591477000002,463.1591477000002,463.7707432999996,f,1,0.6065787000006821,None,,,,,,,,,,1,001,2024-07-27_19h50.03.246,stroop,2024.1.5,None,2024-07-27 19h50.33.749824 +0800,
color.xlsx,color_exp.xlsx,颜色,,,,,男护士,pink,j,0,1,1,0,,,,,0,58,58,52,463.78185959999973,,,,,,,,,,,,,,,,,,,,,,,463.7711019999988,463.78185959999973,464.0814144999986,464.0707034999996,,,,,,,,,,,,,,,,,,,,,,,,,,464.0707155,464.0814144999986,464.0814144999986,464.9712351999988,j,1,0.8831494000005478,None,,,,,,,,,,1,001,2024-07-27_19h50.03.246,stroop,2024.1.5,None,2024-07-27 19h50.33.749824 +0800,
color.xlsx,color_exp.xlsx,颜色,,,,,保姆,purple,l,0,1,1,0,,,,,0,59,59,67,464.98187340000004,,,,,,,,,,,,,,,,,,,,,,,464.9715533999988,464.98187340000004,465.28161349999937,465.270607299999,,,,,,,,,,,,,,,,,,,,,,,,,,465.2706227999988,465.28161349999937,465.28161349999937,467.2704541000003,None,0,,,467.28114970000024,467.28114970000024,,,,,,,,1,001,2024-07-27_19h50.03.246,stroop,2024.1.5,None,2024-07-27 19h50.33.749824 +0800,
color.xlsx,color_exp.xlsx,颜色,,,,,领导,black,a,0,1,1,0,,,,,0,60,60,3,467.28114970000024,,,,,,,,,,,,,,,,,,,,,,,467.2707341999994,467.28114970000024,467.58139239999946,467.5705617000003,,,,,,,,,,,,,,,,,,,,,,,,,,467.57057840000016,467.58139239999946,467.58139239999946,468.3043730999998,a,1,0.7191003000007186,None,,,,,,,,,,1,001,2024-07-27_19h50.03.246,stroop,2024.1.5,None,2024-07-27 19h50.33.749824 +0800,
color.xlsx,color_exp.xlsx,颜色,,,,,女警察,black,a,0,1,1,0,,,,,0,61,61,19,468.31461649999983,,,,,,,,,,,,,,,,,,,,,,,468.30471549999857,468.31461649999983,468.61478499999976,468.60385209999913,,,,,,,,,,,,,,,,,,,,,,,,,,468.60386629999994,468.61478499999976,468.61478499999976,469.2597208999996,a,1,0.63912160000109,None,,,,,,,,,,1,001,2024-07-27_19h50.03.246,stroop,2024.1.5,None,2024-07-27 19h50.33.749824 +0800,
color.xlsx,color_exp.xlsx,颜色,,,,,女领导,black,a,0,1,1,0,,,,,0,62,62,14,469.2701410999998,,,,,,,,,,,,,,,,,,,,,,,469.26006979999875,469.2701410999998,469.5701190999989,469.5596969999988,,,,,,,,,,,,,,,,,,,,,,,,,,469.5597194999991,469.5701190999989,469.5701190999989,470.1158388999993,a,1,0.5369281000002957,None,,,,,,,,,,1,001,2024-07-27_19h50.03.246,stroop,2024.1.5,None,2024-07-27 19h50.33.749824 +0800,
